aX,aY,aZ,gX,gY,gZ
-0.868,-0.676,0.086,-60.364,62.622,97.839
-0.777,-0.677,0.109,-58.716,79.651,104.553
-0.737,-0.622,0.066,-40.039,61.951,102.356
-0.727,-0.403,0.017,-14.832,33.936,95.459
-0.689,-0.249,-0.048,6.348,14.771,86.975
-0.649,-0.212,-0.125,27.588,4.456,78.003
-0.692,-0.349,-0.065,39.978,0.977,66.65
-0.829,-0.46,-0.102,37.292,-6.836,63.416
-1.625,-0.006,-0.155,22.095,-7.568,1.648
-1.91,0.011,-0.177,41.382,-12.512,-33.386
-2.385,0.56,-0.117,69.519,-15.198,-98.633
-2.412,1.196,-0.475,109.802,-22.034,-204.224
-2.424,1.156,-0.653,131.47,-39.49,-229.553
-2.633,0.39,-0.965,150.208,-71.594,-272.827
-1.689,-0.964,0.214,-71.35,89.478,-218.018
-1.1,-0.631,-0.447,-16.907,58.167,-202.271
-0.208,-1.546,-0.322,86.304,81.97,161.499
-0.071,0.689,-0.763,174.377,-1.16,70.312
-0.093,0.766,0.602,202.759,-88.989,88.318
-0.031,1.122,0.957,-2.014,-7.874,90.088
0.077,1.052,0.558,-116.76,12.939,59.875
-0.266,0.28,-0.26,-213.196,-22.461,13.977
0.004,0.026,-0.208,9.949,19.775,67.627
-0.001,-0.079,-0.205,4.333,7.141,43.884
-0.058,-0.091,-0.2,-67.627,4.272,42.053
-0.078,0.08,0.011,-177.673,17.761,43.152
0.365,0.687,-0.067,-34.119,1.343,-32.288
0.426,0.568,-0.062,-11.658,-15.381,-36.987
0.76,-3.915,0.641,-96.008,110.229,73.975
-4.0,2.72,0.811,154.48,-23.682,36.926
-4.0,1.616,0.723,74.524,-33.386,42.908
-2.972,-4.0,-1.574,204.346,-29.053,242.126
-3.99,-0.358,0.385,-129.089,58.228,253.296
-3.062,1.571,-0.285,-238.892,36.072,106.445
-0.443,1.509,0.199,51.27,-34.668,-57.739
-1.151,0.738,-0.403,103.638,-28.625,9.827
-2.355,-1.708,-0.75,75.317,-64.331,-37.231
-1.207,0.019,-0.062,-132.141,62.439,-97.961
-1.254,0.51,-0.071,-125.0,13.611,-105.896
-0.796,1.041,-0.019,-75.195,8.911,-81.299
-0.657,0.081,0.347,-3.113,12.451,-41.382
-0.977,0.2,0.034,-33.081,-123.962,-141.663
-1.034,-0.22,-0.308,-24.109,31.677,-96.008
-0.678,-0.448,0.09,-34.79,110.352,-41.321
-0.579,-0.121,0.017,49.988,-77.942,-50.903
-0.562,-0.032,-0.004,59.814,-90.393,-57.312
-0.548,-0.286,-0.414,99.854,-7.69,-42.908
-0.643,-0.48,-0.469,67.932,-36.804,-53.894
-1.065,-0.711,-0.445,-33.386,-35.645,-53.711
-1.183,-0.375,-0.271,-92.468,1.709,-30.334
-1.06,0.113,0.067,-67.688,13.611,-8.484
-1.015,0.149,0.083,-28.748,9.216,-12.634
-0.974,0.408,-0.154,54.016,-23.01,-39.307
-0.951,0.279,-0.187,72.205,-33.508,-36.194
-0.946,0.186,-0.408,69.031,-20.569,0.977
-0.922,0.161,-0.442,51.697,-6.042,5.432
-0.877,0.066,-0.26,-6.775,29.48,-3.845
-0.917,0.011,-0.205,-17.883,29.114,-9.949
-0.92,0.016,-0.187,-25.818,22.339,-15.259
-0.916,0.248,-0.203,-54.749,-7.446,-34.18
-0.904,0.356,-0.223,-46.509,-7.812,-30.64
-0.911,0.368,-0.212,-40.283,-5.737,-26.672
-0.911,0.267,-0.143,-6.531,11.353,-13.794
-0.937,0.184,-0.252,9.827,2.747,-6.042
-0.943,0.072,-0.244,19.653,13.672,-3.418
-0.95,0.109,-0.298,10.437,-1.038,-10.925
-0.927,0.237,-0.29,-12.756,-9.583,-25.085
-0.921,0.244,-0.283,-16.418,-4.944,-24.109
-0.923,0.257,-0.25,-22.339,0.549,-22.705
-0.919,0.262,-0.238,-21.851,4.15,-22.583
-0.898,0.266,-0.195,-14.343,5.737,-20.081
-0.892,0.263,-0.22,-2.502,1.953,-16.785
-0.903,0.275,-0.249,1.465,-2.563,-17.883
-0.902,0.262,-0.251,3.052,-1.892,-17.578
-0.903,0.216,-0.281,3.662,-1.709,-15.381
-0.913,0.206,-0.272,1.953,-0.427,-13.611
-0.916,0.236,-0.25,-5.981,-2.197,-16.479
-0.922,0.246,-0.239,-6.592,-2.93,-16.602
-0.92,0.257,-0.25,5.432,-0.793,-2.197
-0.911,0.224,-0.265,9.094,0.183,1.526
-0.913,0.258,-0.258,5.737,-0.916,2.319
-0.901,0.307,-0.245,1.282,0.183,0.671
-0.888,0.288,-0.239,1.221,1.587,1.404
-0.887,0.276,-0.252,1.709,0.671,1.587
-0.892,0.287,-0.255,-1.099,1.282,1.282
-0.895,0.297,-0.252,-2.319,0.793,0.549
-0.9,0.287,-0.246,-3.601,2.136,1.038
-0.901,0.275,-0.267,-1.892,1.526,2.441
-0.901,0.285,-0.257,-1.77,0.366,0.977
-0.9,0.275,-0.249,-0.61,0.305,1.038
-0.906,0.278,-0.252,-0.61,0.61,0.305
-0.904,0.275,-0.251,-1.404,0.671,0.244
-0.91,0.284,-0.245,-2.014,0.854,-0.122
-0.903,0.274,-0.247,-1.587,0.977,0.549
-0.903,0.269,-0.249,-1.038,1.282,0.549
-0.903,0.262,-0.251,-0.977,0.916,0.671
-0.905,0.266,-0.248,-1.099,0.671,0.366
-0.908,0.259,-0.257,1.404,0.061,0.244
-0.903,0.264,-0.252,0.244,-0.244,0.244
-0.909,0.271,-0.252,0.549,-0.061,0.183
-0.875,0.273,-0.255,0.793,-0.305,-0.244
-0.906,0.268,-0.257,-0.732,0.244,-0.427
-0.904,0.264,-0.256,-0.854,0.549,0.488
-0.906,0.267,-0.257,-0.977,0.366,0.183
-0.904,0.268,-0.255,-1.465,0.732,0.305
-0.903,0.269,-0.253,-1.77,0.61,0.366
-0.903,0.265,-0.257,-1.343,0.549,0.488
-0.904,0.265,-0.257,-1.648,0.732,0.427
-0.905,0.267,-0.259,-1.526,0.793,0.488
-0.903,0.27,-0.26,-1.526,0.488,0.061
-0.904,0.26,-0.258,-1.648,1.038,0.0
-0.905,0.258,-0.258,-1.953,1.221,0.183
-0.906,0.26,-0.258,-1.892,0.977,0.061
-0.909,0.266,-0.254,-1.465,0.854,0.122
-0.907,0.267,-0.252,-1.343,0.854,0.244
-0.904,0.261,-0.254,-0.183,1.221,0.854
-0.906,0.262,-0.252,-0.061,0.977,0.61
-0.905,0.264,-0.255,-0.061,0.732,0.61
-0.903,0.264,-0.253,-0.122,0.732,0.0

-0.936,0.329,-0.37,12.085,-1.282,42.297
-0.92,0.364,-0.368,15.625,-4.7,40.833
-0.906,0.368,-0.328,18.005,-5.737,40.161
-0.896,0.359,-0.297,19.958,-3.662,40.771
-0.885,0.344,-0.287,20.447,0.793,41.87
-0.882,0.3,-0.261,14.16,7.812,42.236
-0.915,0.141,-0.216,8.179,11.414,40.833
-0.916,0.087,-0.214,6.104,11.414,40.649
-0.928,-0.119,-0.178,-10.376,9.094,38.208
-0.889,-0.222,-0.188,-9.583,15.381,53.833
-0.894,-0.462,-0.119,-21.118,17.517,60.242
-0.867,-0.547,-0.257,-21.912,30.64,85.083
-0.838,-0.552,-0.34,-22.949,38.391,109.497
-0.942,-0.222,-0.016,-66.162,56.702,121.277
-0.929,-0.204,-0.117,-45.715,67.261,127.258
-0.864,0.352,0.191,-72.021,56.885,120.483
-0.531,0.078,-0.119,-58.533,68.054,113.77
-0.68,-0.52,0.064,-10.315,37.415,115.845
-0.92,-0.5,-0.075,27.1,37.231,105.347
-0.974,-0.464,-0.119,44.922,12.634,97.351
-1.071,-0.194,-0.112,67.688,-29.053,41.565
-1.391,-0.008,-0.151,27.649,-12.146,33.081
-1.57,-0.071,-0.407,42.053,-12.695,-20.691
-2.094,-1.001,-0.283,0.0,-12.146,-24.658
-1.993,-0.287,0.096,-39.673,44.495,-40.466
-2.091,0.681,0.208,21.484,20.081,-96.985
-2.165,0.767,0.177,80.75,8.545,-124.878
-2.503,0.624,-0.27,165.1,-23.071,-162.476
-2.579,0.512,-0.624,216.37,-50.598,-204.529
-2.529,0.039,-1.034,241.821,-69.031,-219.543
-1.451,-0.528,-0.696,132.08,23.438,-168.945
-0.432,-0.629,-0.122,83.74,100.891,-110.291
0.383,-4.0,-1.734,-153.32,110.962,15.686
-0.956,-3.307,-0.962,-4.944,17.273,206.848
-0.701,-0.966,-0.167,62.012,-39.612,178.65
0.087,0.6,0.34,174.072,-36.316,155.273
-0.307,1.327,0.688,-15.991,12.695,153.137
-0.742,2.289,-0.613,-178.65,11.841,71.228
-0.494,0.281,-0.211,38.635,-71.045,14.893
-0.057,0.591,-0.139,-92.102,0.183,79.834
0.12,0.413,-0.259,-108.704,-50.598,41.931
-0.032,0.417,0.125,-52.368,-7.202,4.028
-0.023,0.372,0.102,-43.64,-24.902,-25.818
0.177,0.28,-0.059,-25.574,-13.0,-109.009
0.204,0.003,-0.046,-62.866,-23.865,-150.024
0.068,-0.213,0.307,-147.339,11.658,-121.643
0.095,-0.258,0.323,-183.044,37.476,-99.915
-0.61,-1.664,2.0,-314.758,75.623,-36.255
-4.0,0.911,0.56,243.408,-129.578,175.72
-2.821,0.724,2.098,203.796,105.103,365.234
-2.391,2.162,1.558,-57.739,119.873,291.138
-1.858,1.287,-0.104,190.186,-19.47,22.888
-1.699,0.111,-0.503,204.285,-36.255,38.635
-1.267,-0.153,-0.311,-21.301,25.208,-47.302
-1.149,0.092,-0.563,-117.676,31.067,-152.832
-1.597,-1.478,-0.188,-118.347,165.649,-51.453
-1.973,-0.975,0.428,34.363,-31.799,-45.837
-0.746,0.438,-0.432,-5.005,-48.462,-56.885
-0.271,0.916,-0.524,-3.418,-23.804,-36.255
-0.624,0.063,-0.236,28.259,-46.814,-139.099
-1.047,-0.126,-0.171,1.16,-2.38,-57.739
-1.121,-0.155,-0.082,-9.521,-3.845,-57.678
-0.759,-0.516,0.014,-43.64,-21.179,-45.776
-0.635,-0.263,-0.018,-37.964,-48.889,-46.387
-0.844,-0.246,-0.015,-0.916,-21.79,-94.666
-0.732,-0.257,-0.146,-15.32,-69.763,-107.666
-0.675,-0.258,-0.248,-58.716,-55.054,-92.834
-0.733,-0.252,-0.181,-56.702,-0.427,-81.909
-0.951,-0.113,-0.17,-48.645,-2.686,-71.594
-1.108,0.042,-0.019,-52.307,-6.836,-55.176
-1.021,-0.095,0.161,-28.32,-0.977,-42.419
-0.941,0.189,-0.197,20.63,-5.432,-34.119
-0.93,0.053,-0.277,28.32,-11.23,-31.921
-0.978,-0.18,-0.286,26.062,-7.202,-24.048
-0.965,-0.106,-0.253,10.559,-3.174,-6.165
-0.975,-0.051,-0.241,2.686,-11.169,-9.216
-0.949,0.06,-0.197,-15.198,1.953,-12.085
-0.949,0.109,-0.155,-19.226,8.179,-11.414
-0.96,0.175,-0.131,-10.193,-2.075,-10.376
-0.99,0.11,-0.155,1.648,-3.113,-8.85
-0.991,0.078,-0.189,9.827,-1.282,-7.324
-0.998,0.011,-0.227,23.743,-1.282,0.977
-0.982,0.016,-0.231,20.081,-5.676,1.77
-0.982,0.081,-0.229,12.817,-2.319,6.653
-0.946,0.118,-0.18,11.23,0.122,10.376
-0.926,0.219,-0.147,14.343,0.0,10.376
-0.922,0.235,-0.161,14.343,-0.61,9.033
-0.931,0.238,-0.217,18.188,-4.211,2.808
-0.932,0.183,-0.195,13.367,-1.709,0.427
-0.938,0.193,-0.189,11.169,-0.061,-0.366
-0.948,0.132,-0.172,1.587,-3.784,-7.202
-0.949,0.114,-0.175,-0.793,-2.747,-7.812
-0.949,0.107,-0.177,-1.343,-1.77,-7.324
-0.965,0.12,-0.191,-3.296,-1.831,-7.324
-0.967,0.126,-0.189,-3.967,-2.197,-7.08
-0.972,0.142,-0.195,-4.272,-2.319,-4.272
-0.96,0.14,-0.192,3.296,-1.038,4.15
-0.955,0.136,-0.199,11.353,-2.258,10.437
-0.945,0.148,-0.215,11.536,-3.662,10.986
-0.93,0.151,-0.217,5.676,-1.831,8.545
-0.935,0.172,-0.208,1.16,-2.014,5.188
-0.937,0.191,-0.204,0.427,-3.357,0.244
-0.937,0.192,-0.217,1.526,-3.357,-1.404
-0.944,0.177,-0.21,-1.526,-1.343,-2.38
-0.952,0.145,-0.196,-2.625,-1.221,-2.136
-0.955,0.134,-0.187,-2.502,-1.343,-1.282
-0.956,0.117,-0.2,-2.625,-1.892,-1.343
-0.959,0.113,-0.206,-3.052,-2.808,-0.977
-0.961,0.117,-0.208,-3.113,-3.113,-0.854
-0.952,0.145,-0.218,-3.723,-2.136,2.93
-0.944,0.167,-0.203,-1.587,-2.136,6.042
-0.945,0.173,-0.198,0.732,-2.747,7.019
-0.93,0.178,-0.199,3.296,-2.991,7.446
-0.924,0.211,-0.207,2.502,-3.662,3.174
-0.925,0.214,-0.212,2.136,-3.723,-0.366
-0.928,0.222,-0.219,-0.549,-5.188,-4.15
-0.935,0.221,-0.237,-2.625,-5.249,-6.165
-0.932,0.208,-0.228,-8.057,-2.136,-8.789
-0.934,0.199,-0.234,-9.705,-1.282,-9.583

-0.952,-0.479,-0.207,74.585,3.174,76.416
-1.049,-0.54,-0.275,57.8,-0.732,68.542
-1.183,-0.618,-0.324,44.189,-4.028,61.829
-1.314,-0.579,-0.344,34.058,-4.028,56.03
-1.39,-0.505,-0.36,24.536,-4.639,48.279
-1.527,-0.456,-0.245,4.7,-6.409,26.55
-1.575,-0.369,-0.117,-18.86,22.583,-4.822
-1.718,-0.261,0.039,-10.681,-8.728,-28.687
-1.943,-0.015,0.203,-20.386,39.246,-55.725
-2.104,0.476,0.198,20.874,26.672,-125.854
-2.208,0.639,0.039,54.504,19.348,-144.043
-2.736,0.19,-0.745,210.876,-77.087,-225.22
-2.791,-0.348,-0.936,195.19,-94.543,-232.788
-1.823,-0.859,0.044,42.236,7.996,-256.531
-0.172,-0.699,0.212,55.542,26.367,-200.806
-0.539,-1.714,-0.531,56.763,-4.517,177.673
0.012,-0.168,-1.042,353.149,-135.132,97.534
-0.176,1.288,1.313,-61.584,-62.195,15.869
-0.333,2.325,1.54,-226.074,43.64,32.776
-0.718,0.277,-0.913,-270.813,41.321,96.924
-0.929,-0.104,0.617,-215.332,-16.907,100.769
-0.295,0.092,0.113,-65.369,86.853,101.562
0.258,0.822,-0.091,-32.654,0.305,27.588
0.153,0.492,0.008,-61.523,27.222,24.963
0.128,0.502,-0.028,-57.495,11.719,15.015
0.099,0.576,-0.004,-49.377,-7.08,-23.987
0.236,0.019,0.073,-44.8,-23.193,-137.207
-0.436,-0.524,0.075,-217.896,-10.925,-37.292
-3.685,-2.494,-2.188,99.976,23.071,163.452
-3.515,0.362,-1.07,433.533,-132.446,142.029
-2.001,0.084,3.953,-119.629,-161.377,89.539
-2.719,3.708,1.119,-146.912,186.462,211.67
-0.877,3.826,-1.211,147.095,-20.63,-47.241
-2.434,-1.887,-1.381,338.074,-52.917,35.217
-2.659,-3.351,-1.923,131.409,-67.017,96.008
-0.737,-0.321,-0.458,-125.427,141.602,-126.77
-1.307,0.91,-0.164,-173.157,106.445,-60.852
-1.067,0.823,-0.091,-61.035,46.448,-127.808
-0.92,0.664,-0.128,3.174,25.452,-134.705
-0.868,0.003,-0.085,166.504,-142.273,-70.496
-0.944,-0.535,-0.337,114.624,-123.108,-68.054
-0.966,-0.641,-0.296,82.153,-42.786,-65.002
-0.723,-0.255,0.019,-62.683,-5.188,-60.303
-0.687,0.151,0.219,-61.707,-31.616,-53.711
-0.724,-0.071,0.2,-8.301,-28.748,-54.138
-0.882,-0.389,-0.163,5.737,17.395,-33.691
-0.936,-0.402,-0.251,-5.554,12.878,-30.029
-1.043,-0.487,-0.328,-15.442,-11.719,-34.607
-1.021,-0.226,-0.186,-24.048,5.31,-6.531
-1.031,-0.018,-0.14,-35.767,11.475,-3.296
-0.98,0.306,0.001,1.221,-4.395,-19.043
-0.889,0.269,0.013,54.688,5.432,-16.357
-0.976,-0.054,-0.256,91.431,-33.081,-15.137
-0.979,-0.254,-0.31,44.495,-3.174,-14.404
-0.927,-0.094,-0.257,-23.865,0.061,-18.372
-0.963,0.122,-0.143,-46.753,9.094,-19.104
-0.971,0.196,-0.077,-41.199,11.536,-15.747
-0.963,0.208,-0.079,-27.71,6.104,-15.686
-0.995,0.017,-0.182,19.897,5.92,-3.052
-0.966,-0.059,-0.194,25.085,-0.305,-4.578
-1.005,-0.067,-0.267,15.808,-18.982,-11.353
-0.96,0.116,-0.18,10.376,-5.188,-5.432
-0.958,0.168,-0.155,18.066,-9.277,-5.981
-0.958,0.125,-0.14,17.273,-2.38,-2.136
-0.963,0.085,-0.148,16.296,-0.488,-0.366
-0.941,0.135,-0.24,7.874,-4.639,-3.906
-0.931,0.134,-0.26,-2.93,-1.038,-6.897
-0.934,0.234,-0.182,-13.367,-0.427,-10.437
-0.932,0.239,-0.173,-9.155,-0.977,-10.498
-0.938,0.185,-0.175,-4.272,-1.953,-10.803
-0.942,0.17,-0.181,-3.479,-2.441,-11.23
-0.956,0.125,-0.222,-4.639,-3.357,-12.329
-0.951,0.132,-0.22,-9.949,-2.136,-10.376
-0.951,0.142,-0.219,-11.475,-1.16,-8.362
-0.953,0.149,-0.21,-11.414,-0.916,-7.568
-0.943,0.157,-0.223,-5.554,-0.305,-2.319
-0.944,0.157,-0.225,-5.371,-0.488,-2.014
-0.945,0.165,-0.22,-4.028,-0.854,-1.404
-0.944,0.182,-0.243,-2.319,-2.502,-1.953
-0.937,0.167,-0.213,2.625,-5.615,-2.686
-0.935,0.176,-0.228,1.831,-2.441,-2.991
-0.939,0.183,-0.232,-2.747,-1.16,-1.892
-0.937,0.186,-0.225,-2.197,0.244,-1.16
-0.945,0.193,-0.225,-0.916,-2.38,-1.404
-0.939,0.187,-0.22,-1.099,-1.038,-1.099
-0.937,0.179,-0.224,-0.854,0.549,-0.061
-0.938,0.184,-0.225,-1.099,0.122,-0.61
-0.936,0.186,-0.228,-0.854,-0.61,-0.977
-0.938,0.186,-0.235,-1.16,-0.244,-0.244
-0.94,0.19,-0.236,-1.038,0.122,0.183
-0.936,0.187,-0.221,-0.244,0.854,1.16
-0.937,0.192,-0.222,0.122,0.854,1.343
-0.935,0.191,-0.227,0.61,0.244,1.343
-0.936,0.174,-0.221,1.648,0.549,1.282
-0.936,0.173,-0.223,1.648,0.0,0.977
-0.938,0.173,-0.23,1.16,-0.916,0.366
-0.938,0.172,-0.237,1.465,-0.854,0.549
-0.94,0.179,-0.227,0.061,-0.427,0.916
-0.929,0.186,-0.221,2.869,-0.366,1.343
-0.937,0.198,-0.231,3.296,-3.235,-0.122
-0.938,0.191,-0.23,2.808,-0.244,2.563
-0.93,0.175,-0.222,2.441,2.014,2.258
-0.937,0.181,-0.235,1.404,-0.916,-0.366
-0.933,0.178,-0.23,-1.099,0.183,0.244
-0.935,0.178,-0.227,-1.404,0.549,0.427
-0.937,0.181,-0.22,-1.282,0.671,0.061
-0.939,0.181,-0.22,-0.793,0.305,-0.122
-0.941,0.177,-0.229,-1.404,0.916,0.671
-0.936,0.177,-0.221,-2.136,1.648,1.404
-0.935,0.177,-0.224,-1.892,1.648,1.404
-0.936,0.177,-0.223,-0.977,0.61,0.488
-0.939,0.178,-0.222,-1.526,0.549,0.366
-0.943,0.179,-0.225,-2.075,0.854,0.305
-0.936,0.175,-0.222,-1.221,1.038,0.549
-0.934,0.176,-0.223,-1.16,0.793,0.366
-0.938,0.179,-0.227,-0.793,0.244,0.183
-0.939,0.178,-0.228,-0.732,0.244,0.244
-0.94,0.177,-0.222,-1.038,0.549,0.793
-0.939,0.175,-0.225,-0.488,0.732,0.916

-0.939,-0.489,-0.131,11.963,8.545,69.031
-0.974,-0.507,-0.123,8.301,14.526,65.918
-0.997,-0.498,-0.149,5.554,18.494,63.66
-0.986,-0.492,-0.156,7.324,17.395,60.181
-1.085,-0.466,-0.158,14.832,-13.245,42.908
-1.132,-0.425,-0.226,9.094,-12.451,32.227
-1.195,-0.401,-0.173,-5.676,-5.676,11.353
-1.415,-0.469,-0.158,12.085,-16.418,-15.198
-1.484,-0.417,-0.112,8.24,-15.198,-24.231
-1.731,-0.179,0.224,-7.568,4.883,-51.453
-2.001,0.047,0.259,18.616,14.221,-85.205
-2.057,0.087,0.135,51.697,4.272,-119.629
-2.419,0.28,-0.136,97.107,-12.024,-182.251
-2.538,0.263,-0.403,130.188,-17.944,-220.886
-1.997,-0.15,-0.758,173.828,-26.794,-211.121
-0.651,-0.727,-0.228,114.075,4.028,-159.546
-0.262,-1.076,-0.374,64.087,23.987,-140.991
-0.746,-3.681,-0.181,46.265,34.668,204.834
-0.42,-0.811,-0.446,150.391,-74.463,131.958
0.28,1.613,-0.059,-107.727,-34.058,12.817
0.08,3.219,0.469,-489.746,86.853,75.195
-0.634,2.046,-0.269,-148.621,51.575,83.557
-0.236,0.216,0.154,-232.361,55.42,117.004
-0.051,0.54,0.063,-58.777,-16.724,-9.949
-0.084,0.479,0.011,-30.029,-39.429,-56.885
0.18,-0.552,0.404,-138.855,24.109,-129.395
0.238,-0.692,0.361,-144.043,36.194,-118.286
-1.072,-3.625,0.765,-234.558,37.781,30.579
-2.919,-1.126,-1.125,33.691,-49.988,179.565
-0.851,0.099,0.761,12.573,-56.458,30.212
-4.0,-2.75,3.227,111.633,258.911,293.64
-2.886,2.63,-0.236,-102.539,76.721,207.703
-2.026,3.843,-0.835,-25.33,-42.236,2.014
-1.307,0.189,-0.893,200.073,-30.457,-25.024
-2.041,-0.834,-0.802,179.749,-31.494,53.589
-2.271,-1.451,-0.312,72.571,16.052,79.651
-0.939,0.065,-0.653,-219.604,82.397,-95.459
-0.743,0.202,-0.224,-238.342,207.642,-57.8
-0.702,-0.155,0.286,92.163,-11.902,-2.808
-1.05,0.036,-0.048,48.157,-127.991,-103.882
-0.862,0.173,0.129,-46.997,53.711,-25.33
-0.909,-0.011,-0.008,-2.258,-29.968,-73.12
-0.744,0.026,-0.009,-7.568,3.357,-48.706
-0.715,-0.085,-0.131,59.814,-66.406,-81.238
-0.759,-0.125,-0.192,60.364,-64.636,-85.388
-0.722,-0.309,-0.261,74.341,-26.611,-73.364
-0.769,-0.467,-0.341,9.827,-23.193,-50.964
-0.841,-0.414,-0.296,-6.47,-16.846,-47.974
-0.988,-0.227,-0.122,-44.983,-19.531,-47.058
-1.126,0.034,0.022,-27.222,-4.639,-38.574
-0.948,0.149,-0.071,34.546,-9.949,-38.696
-0.88,0.186,-0.145,40.1,-12.268,-38.025
-0.945,0.119,-0.457,32.41,-14.465,-20.63
-0.955,0.073,-0.46,17.395,-3.235,-9.033
-0.938,0.03,-0.217,-11.658,8.179,-3.296
-0.952,0.098,-0.186,-10.193,12.207,1.282
-0.983,0.152,-0.131,-21.362,5.005,1.709
-0.922,0.253,-0.121,-12.634,-0.305,1.16
-0.933,0.175,-0.247,3.357,-0.61,5.737
-0.922,0.112,-0.319,5.432,-0.854,6.653
-0.945,0.13,-0.275,-6.836,-0.61,4.395
-0.955,0.155,-0.26,-7.629,4.395,7.08
-0.955,0.159,-0.178,-10.986,1.221,4.15
-0.939,0.184,-0.212,-8.911,-1.77,1.831
-0.929,0.167,-0.21,-8.972,2.563,6.104
-0.938,0.163,-0.21,-9.338,1.831,6.897
-0.941,0.172,-0.223,-9.338,1.282,7.568
-0.938,0.189,-0.242,-8.179,2.808,6.836
-0.934,0.207,-0.226,-8.179,2.991,6.348
-0.93,0.209,-0.215,-6.042,1.221,4.333
-0.93,0.216,-0.213,-3.845,0.305,2.991
-0.931,0.237,-0.217,-2.869,-0.122,0.244
-0.93,0.239,-0.218,-3.113,0.122,-0.549
-0.939,0.207,-0.213,-2.075,0.793,-1.953
-0.942,0.198,-0.209,-1.099,0.671,-2.563
-0.942,0.187,-0.204,0.854,0.854,-3.235
-0.944,0.18,-0.202,3.845,-0.916,-3.601
-0.949,0.162,-0.218,6.958,-2.258,-2.808
-0.948,0.163,-0.235,8.057,-1.953,-1.892
-0.939,0.157,-0.237,5.981,-0.61,0.488
-0.932,0.136,-0.232,6.653,0.488,1.282
-0.936,0.146,-0.237,6.592,0.183,2.136
-0.938,0.15,-0.234,5.676,-0.122,2.197
-0.941,0.164,-0.225,4.395,0.732,2.319
-0.944,0.172,-0.226,3.174,0.549,2.136
-0.931,0.185,-0.223,4.272,0.916,-0.488
-0.932,0.194,-0.225,2.93,-0.366,-1.648
-0.938,0.159,-0.221,-0.061,1.648,-2.808
-0.939,0.159,-0.228,-0.793,1.343,-3.479
-0.939,0.16,-0.223,-3.723,0.427,-4.822
-0.938,0.154,-0.216,-5.554,1.709,-4.883
-0.946,0.147,-0.223,-5.859,2.075,-4.211
-0.946,0.148,-0.218,-7.019,1.282,-4.15
-0.947,0.145,-0.22,-6.653,2.075,-1.892
-0.944,0.157,-0.233,-5.859,1.892,0.183
-0.946,0.165,-0.23,-5.371,1.709,0.854
-0.941,0.183,-0.204,-1.465,1.77,2.747
-0.939,0.194,-0.216,0.122,1.099,2.502
-0.936,0.179,-0.222,0.427,1.404,2.38
-0.933,0.184,-0.224,-1.282,0.061,0.671
-0.939,0.186,-0.21,-3.235,0.61,-1.038
-0.942,0.182,-0.209,-3.357,0.977,-0.916
-0.944,0.17,-0.215,-1.587,1.648,-0.122
-0.945,0.156,-0.221,-1.892,0.0,2.197
-0.943,0.156,-0.219,-2.136,1.038,3.601
-0.943,0.152,-0.214,-1.648,1.526,3.845
-0.94,0.157,-0.212,-1.16,1.587,4.089
-0.943,0.165,-0.216,-1.709,0.488,3.54
-0.942,0.177,-0.214,-1.343,-0.061,3.235
-0.937,0.184,-0.213,-1.282,1.77,3.113
-0.936,0.177,-0.215,-1.038,1.709,2.686
-0.941,0.167,-0.213,-0.549,1.038,1.648
-0.946,0.157,-0.214,-0.732,0.671,0.61
-0.946,0.156,-0.215,-0.671,0.732,0.366
-0.944,0.16,-0.221,-1.038,0.916,0.61
-0.942,0.151,-0.211,-0.488,1.221,1.038
-0.943,0.153,-0.216,0.916,0.122,1.16
-0.944,0.154,-0.218,0.854,0.061,1.282
-0.947,0.142,-0.222,1.465,0.671,1.77

-0.948,-0.797,-0.051,2.93,5.31,107.178
-1.056,-0.647,0.059,-6.226,7.996,106.628
-1.097,-0.388,0.091,-3.967,12.512,100.525
-1.066,-0.287,0.087,-9.766,13.062,88.318
-1.08,-0.264,0.078,-7.935,3.845,74.28
-1.112,-0.23,0.082,9.949,-5.676,64.636
-1.237,-0.089,0.094,21.729,-17.029,46.57
-1.816,-0.239,-0.226,54.382,-19.226,12.268
-2.026,-0.404,-0.121,42.847,-11.719,7.935
-1.856,-0.148,0.357,0.244,53.223,-28.198
-1.969,0.411,0.229,22.095,40.1,-70.251
-2.143,0.596,0.089,53.772,21.057,-90.942
-2.501,0.589,-0.477,163.086,-32.959,-158.386
-2.527,0.553,-0.586,172.058,-35.278,-169.495
-2.282,-0.161,-1.116,123.657,21.118,-197.937
-1.26,-0.646,-0.461,117.188,90.088,-153.931
-0.139,-1.678,-0.291,-33.997,34.912,-139.343
0.054,-4.0,-0.899,-137.573,133.545,81.543
-0.928,-1.001,-0.525,138.123,-75.928,168.091
-0.193,0.026,0.281,240.051,-82.336,122.986
0.075,0.837,0.669,178.589,-37.476,95.947
-0.061,2.237,0.318,-229.248,21.301,80.811
-0.266,0.155,-0.115,-87.036,25.146,88.562
0.119,0.484,-0.031,-36.682,13.916,11.353
0.133,0.677,-0.01,-12.878,6.042,-6.592
0.042,0.406,-0.028,-27.466,-3.906,-8.728
0.007,0.301,-0.144,-30.518,-40.588,-63.904
0.068,0.071,-0.047,-59.692,-13.062,-128.113
0.345,-0.389,0.157,-117.432,37.537,-124.146
0.319,-0.525,0.056,-130.432,30.273,-119.69
-0.044,-0.46,-0.083,-145.63,-11.475,-62.134
-3.627,-3.738,0.606,-170.227,62.317,157.532
-4.0,0.911,0.109,329.285,17.517,242.676
-0.374,-2.357,-3.065,224.609,8.484,-31.189
-4.0,-3.607,2.186,193.97,70.312,554.443
-1.594,4.0,-1.18,6.47,-23.254,-41.931
0.127,1.816,-0.787,194.946,51.941,-51.025
-2.452,-1.419,-1.082,171.753,2.258,59.875
-0.504,-0.056,-0.118,-201.965,156.921,-50.171
-1.501,0.452,-0.284,-57.129,28.564,-47.424
-1.12,0.436,0.355,166.687,-213.562,-199.036
-1.004,0.495,-0.265,-17.395,-84.045,-81.909
-0.872,0.097,0.042,-77.393,38.086,-25.146
-0.759,-0.337,0.224,-110.535,62.134,-51.88
-0.751,-0.213,0.129,-41.992,-57.556,-49.194
-0.837,-0.138,0.018,14.954,-53.833,-44.556
-0.859,-0.314,-0.204,55.908,-69.275,-48.889
-0.682,-0.514,-0.399,46.082,-37.72,-39.734
-0.671,-0.7,-0.353,4.333,-20.447,-24.536
-1.028,-0.477,-0.255,-58.044,1.465,-13.794
-1.089,-0.182,-0.245,-63.11,-4.639,-13.611
-1.031,0.341,0.035,-41.26,-10.986,-27.283
-0.98,0.216,-0.11,20.325,6.592,-9.888
-0.967,0.123,-0.177,33.02,1.648,-6.104
-0.914,-0.121,-0.421,34.607,-21.362,-8.484
-0.923,0.005,-0.235,-17.7,-4.761,-16.724
-0.965,0.006,-0.221,-21.118,-0.916,-20.752
-0.955,-0.018,-0.19,-23.132,5.859,-20.447
-0.956,0.046,-0.211,-14.404,-0.549,-19.409
-0.968,-0.031,-0.233,4.517,-2.686,-10.071
-0.947,-0.004,-0.22,8.24,4.822,-0.366
-0.964,0.041,-0.194,13.977,-1.221,-3.784
-0.95,0.069,-0.214,11.353,-1.648,-5.493
-0.943,0.101,-0.256,6.653,-0.305,-8.484
-0.935,0.133,-0.25,3.906,0.977,-10.132
-0.97,0.075,-0.222,-1.709,2.319,-13.794
-0.949,0.116,-0.173,-4.211,4.15,-15.381
-0.957,0.087,-0.188,-2.502,2.075,-15.381
-0.961,0.12,-0.187,2.991,-0.244,-16.113
-0.966,0.111,-0.198,4.944,-0.183,-14.465
-0.961,0.091,-0.195,14.526,3.479,-4.517
-0.967,0.069,-0.172,20.386,1.709,1.16
-0.944,0.14,-0.205,24.17,-1.953,2.563
-0.941,0.152,-0.203,19.226,-0.549,-1.038
-0.939,0.137,-0.193,11.536,1.404,-4.028
-0.953,0.106,-0.196,3.296,-0.549,-9.155
-0.955,0.121,-0.193,1.587,-1.038,-10.071
-0.95,0.189,-0.201,-0.122,-1.465,-11.536
-0.954,0.181,-0.171,5.005,-1.465,-9.46
-0.942,0.158,-0.196,4.761,-2.38,-7.507
-0.935,0.173,-0.211,-0.366,-2.258,-10.498
-0.937,0.202,-0.194,-5.859,-1.038,-12.756
-0.925,0.232,-0.2,-5.249,-2.38,-14.099
-0.931,0.216,-0.201,-5.615,-3.174,-14.954
-0.94,0.2,-0.2,-4.822,-3.174,-13.428
-0.952,0.169,-0.207,-2.319,-3.174,-7.874
-0.956,0.195,-0.229,-3.052,-1.16,-1.831
-0.935,0.198,-0.223,-1.953,-0.793,0.244
-0.931,0.222,-0.214,-0.061,-1.099,2.136
-0.922,0.223,-0.221,1.038,-0.61,2.197
-0.921,0.232,-0.221,0.732,-0.305,1.526
-0.917,0.247,-0.212,-0.183,-0.732,-0.732
-0.926,0.23,-0.224,1.16,-0.427,-0.977
-0.931,0.216,-0.228,-1.404,-0.366,-0.488
-0.929,0.234,-0.222,-1.465,-0.122,0.305
-0.93,0.221,-0.216,0.366,0.061,0.732
-0.926,0.221,-0.229,1.099,-0.732,1.038
-0.927,0.21,-0.232,0.793,-0.305,1.16
-0.924,0.216,-0.234,-0.183,-0.244,0.793
-0.922,0.234,-0.227,-2.747,-0.61,-0.854
-0.927,0.226,-0.222,-1.709,0.305,-0.854
-0.93,0.216,-0.223,-1.343,0.122,-0.977
-0.927,0.217,-0.229,-1.892,-0.061,-0.977
-0.927,0.211,-0.225,-1.831,0.061,-0.977
-0.931,0.208,-0.233,-1.099,0.732,-0.854
-0.929,0.209,-0.229,-2.258,0.122,-0.488
-0.929,0.21,-0.225,-1.953,0.183,-0.366
-0.923,0.219,-0.226,-1.16,0.427,-0.061
-0.93,0.221,-0.231,-1.16,0.732,0.0
-0.929,0.219,-0.225,-0.854,0.488,-0.122
-0.927,0.211,-0.225,-0.061,0.488,-0.305
-0.926,0.214,-0.231,0.122,0.0,-0.427
-0.926,0.217,-0.234,-0.122,-0.244,-0.183
-0.924,0.216,-0.234,-0.244,0.0,-15.625
-0.926,0.214,-0.229,-0.122,-0.366,-0.732
-0.929,0.214,-0.225,-0.183,0.0,-0.488
-0.927,0.214,-0.227,-0.61,0.366,-0.305
-0.93,0.216,-0.231,0.427,-0.183,-0.244
-0.93,0.208,-0.227,0.61,0.671,0.549

-0.968,-0.661,0.037,10.071,34.119,140.991
-1.042,-0.476,0.087,-1.831,40.039,134.338
-1.011,-0.35,-0.043,8.179,37.781,120.667
-1.002,-0.425,-0.137,20.386,25.94,102.6
-1.062,-0.485,-0.11,29.419,17.029,88.867
-1.107,-0.388,-0.094,34.424,11.902,81.848
-1.078,-0.28,-0.186,41.26,5.005,71.289
-1.187,-0.181,-0.397,36.377,-24.17,32.654
-1.665,-0.503,-0.334,9.094,-16.113,14.038
-1.834,-0.64,0.063,-15.869,9.033,-4.517
-1.857,-0.457,0.3,-49.866,35.706,-29.541
-1.937,0.544,0.466,12.756,36.865,-66.528
-2.078,0.49,0.287,126.221,10.681,-109.436
-2.447,0.498,-0.457,236.023,-62.622,-189.575
-2.604,0.604,-0.7,232.788,-66.65,-205.566
-1.98,0.033,-1.357,185.181,-18.921,-203.369
-0.524,-0.854,-0.485,33.02,90.515,-133.24
0.155,-4.0,-0.866,-122.07,73.12,5.066
-0.777,-1.647,-0.672,68.115,-39.612,184.937
0.005,0.336,0.154,174.622,-45.532,47.913
-0.196,1.386,0.993,-153.992,58.777,71.289
-0.785,2.089,-0.99,-110.718,-64.27,55.725
-0.524,-0.193,-0.431,6.836,-52.124,89.539
-0.283,0.306,0.149,-181.824,104.37,136.108
0.236,0.857,0.132,40.161,-21.851,-13.916
0.275,0.568,0.06,36.011,9.155,-6.836
0.142,0.452,-0.189,-13.794,-40.161,-22.461
0.084,0.31,-0.065,-44.189,-10.254,-61.707
0.104,-0.319,0.228,-166.504,31.189,-130.188
-0.069,-0.644,0.015,-117.737,24.658,-128.479
-0.902,-3.454,0.635,-364.929,-5.737,7.568
-2.675,-3.372,0.372,-234.253,73.975,118.652
-3.726,2.838,0.423,274.231,-83.191,26.062
-4.0,-4.0,4.0,-301.208,-155.212,411.316
-1.204,3.741,-1.226,209.351,-30.884,-55.298
-1.788,-0.476,-1.924,196.899,-135.01,39.429
-2.465,-2.549,-0.396,-8.179,-73.975,91.553
-0.542,-0.009,-0.165,-293.701,71.838,-70.251
-1.387,0.882,-0.07,-310.303,36.682,-84.961
-0.986,0.698,0.328,-171.692,76.538,-62.805
-0.566,-0.042,0.118,170.776,15.32,6.897
-0.922,-0.216,-0.306,55.176,-116.76,-117.859
-0.905,-0.348,-0.242,-8.118,2.93,-61.523
-0.829,-0.228,-0.008,-95.703,36.438,-33.447
-0.767,-0.162,-0.03,-94.91,48.767,-26.184
-0.758,-0.152,-0.119,-59.753,27.71,-21.973
-0.767,-0.573,-0.342,18.982,-53.589,-46.326
-0.888,-0.641,-0.337,6.47,-62.866,-51.453
-1.118,-0.527,-0.292,-72.571,-0.671,-40.039
-0.866,-0.193,-0.093,-26.733,30.701,-10.62
-0.902,-0.148,-0.009,-30.457,-38.147,-27.466
-1.038,0.261,-0.037,0.916,-22.095,-14.343
-0.941,0.365,-0.023,52.673,-10.986,-20.386
-0.972,0.23,-0.172,69.031,-11.23,-20.02
-0.964,-0.033,-0.411,30.518,-17.395,-35.095
-0.936,-0.049,-0.366,12.695,-2.319,-33.752
-0.897,0.006,-0.236,-7.08,11.963,-30.518
-0.93,0.11,-0.152,-38.452,3.723,-42.725
-0.936,0.127,-0.125,-41.992,4.7,-43.274
-0.92,0.201,-0.088,-36.377,6.897,-40.527
-0.954,0.169,-0.102,-11.902,0.244,-36.255
-0.96,0.138,-0.125,-3.357,-0.122,-32.959
-0.973,0.053,-0.221,15.259,-2.808,-22.644
-0.992,-0.043,-0.261,16.296,-4.272,-15.32
-0.998,-0.056,-0.258,10.986,-5.005,-11.292
-0.992,-0.02,-0.219,6.165,-3.357,-8.484
-0.978,0.113,-0.204,-3.601,-1.587,-4.883
-0.954,0.122,-0.206,-3.845,-0.488,-3.723
-0.941,0.147,-0.193,-3.052,0.793,-1.77
-0.945,0.166,-0.219,-6.287,1.831,-1.038
-0.946,0.163,-0.229,-5.493,2.136,-0.916
-0.944,0.176,-0.227,-5.554,0.366,-1.16
-0.947,0.19,-0.176,-1.831,1.221,-1.282
-0.946,0.201,-0.172,-0.366,-0.244,-1.282
-0.928,0.217,-0.176,3.723,-2.014,-1.526
-0.927,0.212,-0.18,5.493,-1.77,-1.465
-0.926,0.218,-0.193,7.446,-0.977,-1.282
-0.923,0.223,-0.195,7.996,-0.671,-1.648
-0.931,0.211,-0.207,7.751,-1.526,-2.502
-0.938,0.208,-0.201,4.272,-0.61,-2.014
-0.938,0.206,-0.211,4.333,-1.16,-1.892
-0.938,0.2,-0.208,4.639,-1.16,-1.831
-0.942,0.181,-0.207,6.897,0.122,-0.854
-0.949,0.18,-0.218,5.554,-1.526,-0.122
-0.944,0.166,-0.207,3.784,-1.099,0.793
-0.93,0.174,-0.208,3.784,-0.732,1.404
-0.931,0.181,-0.206,3.479,-0.793,1.221
-0.943,0.186,-0.194,3.113,-0.122,0.244
-0.941,0.179,-0.201,2.38,-0.122,-0.183
-0.937,0.186,-0.219,-0.793,-0.244,-0.793
-0.936,0.19,-0.213,-1.831,-0.427,-0.977
-0.939,0.201,-0.201,-4.578,1.16,-0.916
-0.938,0.199,-0.202,-2.869,1.892,-0.427
-0.941,0.196,-0.204,-2.502,1.587,-0.427
-0.941,0.186,-0.207,-1.221,1.099,0.61
-0.941,0.186,-0.213,-0.488,1.77,1.343
-0.948,0.199,-0.226,-2.136,0.61,0.916
-0.945,0.197,-0.219,-3.967,-0.244,0.549
-0.93,0.198,-0.201,-1.709,1.831,1.709
-0.928,0.205,-0.198,-1.465,1.892,1.526
-0.939,0.204,-0.193,0.0,1.709,1.282
-0.942,0.199,-0.193,1.038,1.77,1.404
-0.938,0.19,-0.202,3.174,1.648,1.709
-0.939,0.187,-0.204,3.54,1.709,1.709
-0.939,0.185,-0.209,4.272,1.343,1.953
-0.936,0.187,-0.204,4.211,1.404,2.38
-0.941,0.188,-0.205,4.395,1.953,2.869
-0.944,0.173,-0.199,3.174,1.404,2.869
-0.942,0.169,-0.198,3.113,1.709,3.296
-0.944,0.172,-0.191,2.808,1.709,3.967
-0.948,0.167,-0.196,2.258,1.099,4.089
-0.946,0.17,-0.197,2.014,1.221,4.272
-0.947,0.168,-0.195,1.404,1.709,5.005
-0.946,0.172,-0.195,1.099,1.77,5.31
-0.949,0.17,-0.197,1.709,2.014,6.592
-0.946,0.172,-0.195,2.075,1.587,7.385
-0.943,0.175,-0.194,2.563,1.404,7.568
-0.935,0.186,-0.19,2.991,1.343,7.507
-0.937,0.187,-0.188,3.296,1.526,6.958

-1.31,-0.265,-0.126,29.236,-8.179,51.27
-1.466,-0.28,-0.091,21.606,-6.348,44.861
-1.651,-0.286,-0.072,16.235,-3.052,38.391
-1.75,-0.285,0.021,14.221,3.601,29.968
-1.744,-0.296,0.078,11.414,11.658,19.226
-1.578,-0.112,0.216,7.629,40.771,-25.024
-1.901,0.165,0.137,26.55,39.429,-47.485
-2.273,0.308,-0.435,147.034,-15.686,-150.024
-2.27,-0.673,-0.925,103.699,-27.832,-220.032
-0.641,-0.587,-0.004,-10.437,63.66,-157.593
-0.452,-0.866,0.058,-23.621,25.146,-158.386
-0.576,-4.0,-0.453,-2.869,6.409,157.837
-0.214,-0.312,-0.43,294.312,-161.316,102.966
-0.122,1.048,0.719,47.363,-58.594,47.546
-0.13,1.812,1.144,-121.826,3.784,62.988
-0.704,2.027,-0.497,-37.292,9.094,45.898
-0.542,-0.232,0.289,-146.851,21.423,77.515
-0.229,-0.252,-0.052,-182.434,69.641,114.441
0.146,0.621,0.022,-52.185,-13.489,15.625
0.121,0.62,0.094,-69.519,8.301,-0.366
0.108,0.632,0.024,-70.74,5.432,-1.404
-0.159,0.086,0.221,-60.669,-33.508,-95.093
-0.121,-0.041,0.283,-116.394,-0.977,-118.286
-0.126,-0.854,0.055,-102.905,-18.555,-21.24
-1.897,-2.561,-1.536,68.787,7.935,110.596
-3.812,-0.232,-0.601,375.671,-67.505,153.748
-2.497,-4.0,-3.882,60.12,21.118,53.955
-4.0,-0.208,1.051,194.214,334.045,378.784
-0.507,3.576,-0.687,119.019,0.671,-86.609
-0.188,2.221,-0.96,238.647,24.78,-58.228
-3.405,-2.399,-1.452,126.953,-61.279,83.923
-1.905,-2.261,-0.465,-42.847,-0.244,23.315
-0.839,-0.564,-0.682,-74.463,117.371,-106.934
-1.575,0.844,0.285,161.743,-119.446,-133.85
-0.951,0.561,0.025,181.763,-148.193,-128.723
-0.839,0.409,0.014,79.529,-23.926,-50.781
-0.817,-0.137,-0.164,20.813,-15.686,-89.172
-0.725,-0.198,-0.122,-1.526,4.578,-63.538
-0.71,-0.24,-0.164,-37.72,-3.601,-58.105
-0.846,-0.156,-0.167,-46.509,-24.963,-43.518
-0.84,-0.405,-0.221,-23.315,9.46,-29.785
-0.819,-0.487,-0.244,-21.912,3.723,-31.311
-0.925,-0.781,-0.259,-80.139,-23.499,-20.386
-0.982,-0.531,-0.078,-51.636,27.283,-12.634
-1.04,-0.417,-0.099,-53.223,13.306,-9.583
-1.01,0.23,0.014,-5.859,-26.794,-13.0
-0.956,0.298,0.016,31.677,-23.254,-15.869
-0.993,0.379,-0.069,39.734,-22.095,-15.32
-0.963,0.037,-0.338,63.965,-4.395,-0.122
-0.91,-0.041,-0.328,31.189,-2.441,-2.075
-0.949,0.042,-0.211,-12.878,-2.258,-18.066
-0.974,0.031,-0.18,-19.287,-0.061,-20.142
-0.947,0.166,-0.144,-29.785,1.16,-23.926
-0.957,0.235,-0.132,-25.269,3.052,-26.428
-0.946,0.166,-0.107,-1.038,1.465,-23.376
-0.966,-0.038,-0.259,20.386,-7.507,-14.709
-0.966,-0.057,-0.261,19.104,-7.751,-14.648
-0.978,-0.071,-0.254,5.371,-3.906,-9.033
-0.969,0.074,-0.21,-5.249,-2.258,-5.798
-0.953,0.112,-0.19,-0.366,-0.244,0.244
-0.953,0.172,-0.175,5.371,-0.793,3.479
-0.961,0.152,-0.172,7.812,-1.099,4.089
-0.931,0.15,-0.234,3.113,-1.465,-0.916
-0.94,0.176,-0.219,-9.155,0.671,-7.446
-0.938,0.217,-0.162,-6.287,1.892,-7.996
-0.949,0.191,-0.158,2.38,-1.831,-9.277
-0.953,0.166,-0.196,10.132,-2.502,-7.629
-0.943,0.141,-0.219,9.155,-1.892,-4.944
-0.94,0.135,-0.225,5.92,-1.16,-5.066
-0.94,0.145,-0.213,1.099,-0.488,-6.531
-0.946,0.167,-0.206,-2.38,0.61,-6.592
-0.941,0.179,-0.198,-3.113,0.854,-6.287
-0.938,0.177,-0.194,-3.601,1.099,-6.409
-0.942,0.186,-0.207,-2.38,0.366,-6.592
-0.939,0.192,-0.213,-1.648,0.122,-6.348
-0.951,0.15,-0.204,-1.587,0.61,-2.38
-0.938,0.172,-0.193,-3.784,0.305,-1.709
-0.94,0.197,-0.197,-3.906,0.183,-1.953
-0.938,0.198,-0.204,-2.808,0.916,-1.221
-0.935,0.2,-0.206,-3.113,0.854,-1.16
-0.936,0.204,-0.202,-3.052,0.977,-0.305
-0.936,0.202,-0.199,-1.953,1.343,-0.488
-0.938,0.204,-0.196,-1.587,0.0,-0.732
-0.939,0.208,-0.199,-0.732,-0.061,-0.793
-0.937,0.207,-0.197,-0.366,-0.61,-0.732
-0.936,0.211,-0.197,0.671,-0.793,-0.488
-0.935,0.215,-0.206,0.916,-0.916,-0.549
-0.931,0.207,-0.2,1.465,-0.427,-0.244
-0.937,0.194,-0.204,0.549,-0.244,-0.488
-0.938,0.196,-0.205,0.305,-0.305,-0.793
-0.94,0.197,-0.204,-0.244,-0.488,-1.099
-0.934,0.201,-0.206,-0.305,-0.854,-0.977
-0.935,0.203,-0.207,-0.305,-0.977,-1.038
-0.936,0.201,-0.211,0.916,-0.977,-0.549
-0.935,0.196,-0.207,0.549,-0.305,-0.305
-0.933,0.205,-0.217,0.671,-0.61,-0.916
-0.931,0.208,-0.215,0.061,-0.793,-1.038
-0.933,0.192,-0.216,-0.061,0.732,-0.366
-0.936,0.185,-0.217,-0.061,0.427,-0.366
-0.94,0.182,-0.216,-0.549,0.61,-0.244
-0.941,0.181,-0.216,-0.244,0.488,-0.122
-0.938,0.185,-0.214,0.183,0.061,-0.122
-0.937,0.182,-0.211,0.244,0.244,0.244
-0.937,0.182,-0.21,0.732,0.366,0.61
-0.939,0.182,-0.216,0.183,-0.061,1.038
-0.936,0.182,-0.213,-0.061,0.244,1.16
-0.933,0.182,-0.216,-0.122,0.305,0.793
-0.937,0.186,-0.215,-0.854,0.366,0.732
-0.937,0.186,-0.21,-1.77,0.488,0.305
-0.938,0.187,-0.207,-2.38,1.221,0.122
-0.938,0.191,-0.212,-2.258,0.793,-0.305
-0.937,0.19,-0.213,-2.258,0.61,-0.122
-0.936,0.195,-0.208,-2.686,0.549,-0.549
-0.935,0.193,-0.208,-1.892,1.221,-0.244
-0.935,0.196,-0.211,-0.671,0.488,-0.427
-0.938,0.191,-0.209,-0.793,0.549,-0.061
-0.939,0.189,-0.208,-0.793,0.549,-0.244
-0.938,0.186,-0.216,0.183,0.793,-0.183
-0.933,0.194,-0.206,-0.427,0.244,-0.122

-1.252,-0.251,-0.174,17.395,-17.761,34.18
-1.421,-0.22,-0.25,26.306,-20.813,27.1
-1.628,-0.257,-0.307,32.104,-23.438,21.24
-1.833,-0.319,-0.297,31.738,-22.278,15.991
-1.961,-0.386,-0.182,24.353,-15.015,9.216
-1.973,-0.391,0.026,11.414,0.488,-0.122
-1.851,-0.294,0.205,-1.282,21.606,-13.245
-1.955,0.197,0.248,9.216,34.79,-74.646
-2.54,0.628,-0.439,122.009,-6.958,-191.528
-2.427,-0.255,-0.812,163.574,-22.461,-244.324
-1.17,-0.718,-0.465,86.365,6.775,-224.182
0.126,-4.0,-0.235,-24.658,53.345,144.47
-0.399,-0.682,0.088,258.423,-94.421,122.559
0.433,3.601,1.034,-373.23,40.039,130.127
-0.389,0.189,-0.881,47.852,-91.553,34.302
0.019,0.091,-0.251,-152.649,39.917,74.707
0.129,0.781,0.088,-52.307,3.662,-26.917
0.131,0.757,0.005,-59.631,22.339,-24.475
-0.106,0.063,0.221,-104.919,10.193,-75.378
0.113,-0.246,0.206,-141.663,43.518,-107.849
0.173,-0.56,0.149,-121.033,26.428,-87.28
-0.163,-0.485,-0.376,-134.094,-23.438,-33.997
-0.511,-1.297,0.872,-170.41,-16.541,11.841
-3.999,1.994,1.002,87.402,-115.723,91.248
-0.686,-0.258,-1.031,28.259,-11.597,4.272
-4.0,-4.0,2.182,-178.528,264.221,408.508
-3.292,3.827,-0.806,-162.659,-10.803,199.219
-1.169,2.962,-0.355,-0.366,-38.879,-45.227
-0.817,1.361,-0.763,203.491,-21.484,-54.26
-1.545,-0.468,-0.675,179.81,16.602,77.82
-1.527,-0.505,-0.691,-64.331,57.495,-10.376
-1.489,-1.408,0.259,-232.91,109.436,-62.622
-1.346,-0.975,-0.258,-240.112,175.293,-46.692
-1.115,0.639,0.089,58.167,-58.777,-69.031
-0.827,0.929,-0.003,84.656,-76.294,-90.454
-0.738,0.406,0.044,96.497,-59.875,-89.172
-0.922,0.015,-0.192,85.632,27.893,-29.907
-0.948,-0.724,-0.231,18.311,-3.784,-57.8
-0.666,-0.181,-0.081,-56.885,-2.38,-47.607
-0.842,0.265,-0.009,-17.151,-25.085,-65.918
-0.801,0.03,-0.038,28.503,-1.77,-48.645
-0.725,-0.446,-0.247,55.664,-43.03,-59.57
-0.822,-0.671,-0.401,-2.686,-15.747,-50.049
-0.945,-0.394,-0.343,-58.96,-3.479,-25.757
-1.015,-0.171,-0.193,-73.547,-8.606,-18.311
-1.007,0.106,0.094,-55.725,2.014,-6.897
-1.04,0.3,0.047,-20.386,-6.531,-11.78
-0.983,0.434,-0.044,27.405,5.432,-19.531
-0.974,0.057,-0.319,79.529,-16.113,-9.277
-0.886,-0.02,-0.323,9.216,-1.77,-30.457
-0.888,0.038,-0.279,-3.113,-4.028,-36.194
-0.934,-0.009,-0.172,-20.02,10.071,-28.015
-0.953,-0.01,-0.169,-24.902,9.705,-24.231
-0.973,0.101,-0.175,-19.104,-4.333,-24.841
-0.964,0.149,-0.145,-0.244,-4.272,-16.113
-0.954,0.08,-0.281,18.372,-2.869,-3.052
-0.941,0.11,-0.246,4.272,-1.831,-5.249
-0.924,0.215,-0.201,-14.771,3.784,-10.315
-0.934,0.203,-0.2,7.08,-0.122,-2.319
-0.937,0.166,-0.24,10.62,-0.244,-1.465
-0.938,0.149,-0.261,6.836,-2.93,-5.249
-0.929,0.162,-0.249,4.15,-2.991,-6.287
-0.929,0.233,-0.205,-0.732,-1.526,-6.836
-0.927,0.241,-0.203,0.488,-1.465,-6.653
-0.924,0.239,-0.196,4.272,-0.427,-5.615
-0.917,0.214,-0.208,8.911,-0.305,-5.188
-0.92,0.205,-0.212,9.399,0.244,-5.493
-0.927,0.212,-0.268,0.61,0.0,-8.85
-0.926,0.203,-0.263,-2.808,-1.038,-10.62
-0.944,0.209,-0.212,-0.732,0.793,-5.554
-0.944,0.204,-0.213,2.014,1.038,-1.465
-0.939,0.204,-0.219,2.869,0.977,0.854
-0.933,0.204,-0.224,1.77,0.366,0.916
-0.92,0.224,-0.224,-0.977,1.038,0.549
-0.915,0.245,-0.214,-3.784,0.854,-1.526
-0.927,0.245,-0.218,-1.892,0.0,-1.404
-0.923,0.242,-0.214,-0.793,0.61,-1.16
-0.926,0.232,-0.216,0.854,0.488,-0.427
-0.921,0.226,-0.222,1.099,0.122,-0.244
-0.924,0.232,-0.232,-0.061,-0.61,-0.793
-0.921,0.236,-0.229,-1.038,-0.305,-0.671
-0.918,0.258,-0.211,-2.319,0.61,-0.793
-0.919,0.26,-0.212,-1.953,0.366,-0.977
-0.918,0.264,-0.214,-0.427,0.305,-1.038
-0.916,0.26,-0.218,-0.244,0.366,-0.854
-0.92,0.245,-0.222,0.427,0.0,-0.061
-0.922,0.239,-0.221,-0.183,0.183,0.122
-0.923,0.237,-0.222,-0.183,0.244,-0.244
-0.923,0.236,-0.229,-0.488,-0.061,-0.488
-0.926,0.23,-0.228,-0.916,0.549,0.244
-0.924,0.227,-0.227,-1.038,0.488,0.183
-0.926,0.231,-0.227,-0.732,0.061,-0.183
-0.922,0.234,-0.226,0.061,0.244,0.61
-0.926,0.225,-0.225,0.183,0.183,0.61
-0.923,0.227,-0.225,0.0,0.0,0.0
-0.924,0.233,-0.229,-0.916,0.244,-0.183
-0.923,0.235,-0.231,-0.183,-0.061,-0.183
-0.922,0.229,-0.219,1.038,0.305,0.854
-0.923,0.234,-0.225,1.282,0.061,0.427
-0.921,0.235,-0.227,1.16,-0.122,0.183
-0.918,0.243,-0.225,0.854,0.0,0.061
-0.918,0.239,-0.223,0.854,0.549,0.183
-0.921,0.239,-0.222,0.732,0.427,-0.061
-0.921,0.232,-0.219,0.916,0.61,-0.366
-0.924,0.229,-0.221,0.732,0.183,-0.732
-0.927,0.225,-0.223,0.549,0.183,-0.732
-0.927,0.221,-0.223,0.366,0.244,-0.549
-0.926,0.221,-0.223,0.488,0.305,-0.427
-0.929,0.221,-0.225,0.549,0.244,0.061
-0.921,0.231,-0.222,0.61,0.183,0.488
-0.92,0.234,-0.22,0.549,0.244,0.183
-0.92,0.237,-0.221,0.488,0.183,0.061
-0.923,0.231,-0.223,0.366,0.122,-0.305
-0.919,0.237,-0.225,0.244,0.122,-0.61
-0.92,0.242,-0.221,-0.183,0.122,-1.099
-0.925,0.231,-0.218,-0.244,0.671,-0.916
-0.924,0.228,-0.219,-0.122,0.793,-0.793
-0.922,0.229,-0.224,-0.183,0.244,-0.793
-0.923,0.232,-0.22,0.061,0.183,-0.61

-0.939,-0.389,-0.246,-7.629,18.005,79.651
-0.927,-0.614,-0.186,-13.123,18.616,87.463
-0.881,-0.553,-0.231,2.014,22.278,101.135
-0.836,-0.668,-0.083,1.892,27.344,111.084
-0.804,-0.52,-0.039,3.906,35.4,122.07
-0.757,-0.387,0.0,-4.7,45.105,129.822
-0.736,-0.25,-0.033,-37.842,49.133,139.038
-0.723,0.156,0.058,-105.896,85.571,159.363
-0.872,-0.031,-0.205,43.701,44.25,158.752
-0.947,0.348,-0.415,79.285,14.526,154.968
-0.408,0.388,-0.057,22.217,37.598,111.45
-0.54,-0.095,-0.148,29.907,-0.366,78.674
-0.764,-0.385,-0.202,44.556,-4.944,69.336
-1.459,-0.131,-0.137,8.972,-5.676,-4.639
-1.557,0.125,-0.11,4.028,-11.292,-20.325
-2.037,0.491,0.206,13.0,14.954,-51.758
-2.439,0.331,0.017,60.486,19.531,-130.127
-2.413,0.92,-0.603,122.498,-13.55,-198.486
-2.251,-0.422,-1.212,174.805,-62.195,-231.079
-1.496,-0.965,-0.743,103.638,-5.92,-209.473
0.268,-2.595,-0.885,-7.874,63.965,-123.474
0.203,0.29,0.079,217.712,-33.691,91.431
0.367,1.605,1.059,-71.96,-43.335,11.414
0.359,2.732,1.147,-263.489,-12.695,38.696
-0.591,1.055,-1.304,-75.5,-54.321,31.189
-0.658,-0.3,0.305,-219.36,109.131,135.986
-0.108,0.291,0.162,-120.117,132.446,137.573
0.046,0.709,0.074,-68.848,13.367,44.006
0.194,0.623,-0.016,1.709,3.662,20.874
0.18,0.495,-0.054,0.183,-6.409,13.855
0.194,0.151,-0.101,0.183,-16.052,-42.603
0.122,-0.388,0.153,-90.332,3.296,-97.229
0.095,-0.527,0.222,-157.593,44.739,-96.863
0.185,-0.747,-0.067,-143.982,53.467,-85.876
0.007,-0.667,-0.288,-127.686,29.114,-69.702
-0.465,-1.419,0.564,-245.605,59.753,63.965
-1.824,1.1,0.756,198.12,-85.815,41.87
-0.248,0.741,0.232,47.241,30.396,-46.814
-4.0,-0.522,-0.29,40.039,232.849,396.179
-1.037,0.277,-0.58,241.516,-53.345,-63.721
-2.716,-2.493,-0.591,41.565,-72.937,98.694
-0.811,-0.221,-0.657,-139.771,109.436,-74.219
-0.594,0.052,-0.248,-224.365,59.448,-66.345
-1.364,1.067,-0.167,-182.373,116.699,-31.799
-0.731,0.907,-0.06,197.327,-191.162,-74.89
-1.185,0.302,-0.345,119.568,-230.713,-156.616
-1.036,0.036,-0.304,3.906,19.226,-37.17
-0.769,-0.234,0.047,-95.703,105.591,-23.254
-0.641,-0.227,0.114,-81.543,69.519,-32.654
-0.727,-0.159,0.053,-34.973,-35.4,-46.143
-0.961,0.062,-0.103,13.855,-81.848,-72.937
-0.865,0.058,-0.109,27.344,-19.287,-67.139
-0.704,-0.189,-0.144,52.856,-6.226,-64.026
-0.793,-0.368,-0.3,41.199,-34.241,-60.425
-0.854,-0.424,-0.266,14.099,-37.231,-51.819
-1.053,-0.427,-0.255,-31.25,-8.484,-27.954
-1.061,-0.037,-0.057,-38.391,0.366,-25.146
-0.994,0.136,-0.02,-19.348,-4.639,-28.809
-0.932,0.099,-0.261,25.085,-9.277,-30.884
-0.941,0.09,-0.29,1.709,-2.014,-18.188
-0.926,0.114,-0.225,-7.751,7.507,-14.16
-0.946,0.145,-0.173,-16.113,10.742,-18.799
-0.942,0.169,-0.161,-20.935,1.587,-21.851
-0.962,0.165,-0.149,-13.489,1.221,-14.587
-0.981,0.102,-0.182,0.488,4.761,-5.554
-0.984,0.048,-0.202,4.578,-5.798,-8.972
-0.957,0.039,-0.265,7.751,1.465,0.732
-0.952,0.135,-0.213,1.648,-3.052,-0.305
-0.946,0.196,-0.196,-0.366,-4.272,-1.526
-0.921,0.237,-0.188,-1.526,0.671,0.366
-0.936,0.208,-0.178,0.305,1.648,-1.892
-0.943,0.186,-0.207,5.371,-0.305,-3.174
-0.929,0.189,-0.204,7.019,-1.221,-2.258
-0.935,0.194,-0.197,8.545,-1.709,-2.93
-0.942,0.201,-0.201,10.01,-2.319,-3.235
-0.936,0.173,-0.21,5.371,-0.854,-0.977
-0.941,0.192,-0.192,4.333,-0.427,0.366
-0.94,0.194,-0.193,3.906,-0.244,0.549
-0.929,0.213,-0.19,3.845,0.366,-0.488
-0.936,0.198,-0.198,3.235,0.0,-0.793
-0.94,0.189,-0.211,0.305,0.061,-0.549
-0.941,0.19,-0.209,-0.122,0.366,-0.366
-0.907,0.202,-0.201,-1.953,-0.244,-0.61
-0.935,0.199,-0.198,-1.343,0.244,0.305
-0.939,0.194,-0.204,-1.77,0.244,0.977
-0.932,0.215,-0.207,-3.174,0.793,1.404
-0.927,0.217,-0.204,-2.991,0.916,1.099
-0.927,0.217,-0.202,-2.686,0.793,1.099
-0.93,0.223,-0.198,-1.587,0.549,0.244
-0.931,0.227,-0.198,-0.671,0.244,-0.183
-0.931,0.225,-0.199,-0.732,0.0,-0.427
-0.935,0.208,-0.203,0.366,0.0,-0.549
-0.936,0.198,-0.201,0.977,0.061,0.122
-0.935,0.202,-0.206,1.099,-0.427,0.671
-0.937,0.2,-0.205,0.427,0.244,1.221
-0.938,0.191,-0.206,-0.793,0.488,1.587
-0.939,0.192,-0.208,-0.916,0.732,1.892
-0.939,0.198,-0.204,-1.099,0.671,2.319
-0.938,0.199,-0.204,-0.488,0.549,3.418
-0.94,0.199,-0.207,0.0,0.549,3.906
-0.938,0.196,-0.212,-0.122,-0.244,3.967
-0.937,0.194,-0.214,-0.366,-0.549,3.906
-0.939,0.191,-0.206,-0.916,-0.732,4.028
-0.941,0.198,-0.213,-0.122,-0.854,4.517
-0.938,0.189,-0.208,0.549,-0.793,5.493
-0.938,0.196,-0.213,-0.61,-0.916,5.432
-0.936,0.192,-0.214,0.122,-0.549,5.737
-0.939,0.182,-0.206,0.244,0.61,5.188
-0.942,0.173,-0.212,0.183,1.648,5.798
-0.941,0.181,-0.208,0.305,2.258,6.531
-0.939,0.166,-0.208,2.441,1.526,6.836
-0.944,0.156,-0.2,2.258,1.892,6.714
-0.946,0.14,-0.205,1.16,0.244,4.883
-0.945,0.158,-0.217,2.686,0.977,4.211
-0.947,0.171,-0.197,0.854,-3.906,-1.038
-0.949,0.165,-0.197,0.793,-3.54,-0.427
-0.952,0.151,-0.192,-1.282,0.366,1.587
-0.952,0.153,-0.193,-2.014,-0.793,1.038
-0.945,0.156,-0.196,-3.357,5.005,4.944

-0.749,0.627,-0.283,-3.235,35.095,118.713
-0.632,0.268,-0.382,60.425,21.179,111.328
-0.627,-0.132,-0.218,78.979,7.202,110.291
-0.727,-0.487,-0.171,57.19,2.441,111.267
-0.859,-0.682,-0.201,28.32,2.38,115.051
-1.105,-0.935,-0.208,-4.578,4.456,117.92
-1.337,-0.309,-0.009,-0.732,8.118,87.83
-1.273,-0.174,-0.211,25.635,-33.875,32.104
-1.418,-0.096,-0.261,31.86,-41.931,7.324
-1.875,-0.298,-0.185,20.081,-15.015,-2.441
-2.077,0.069,0.289,-22.888,48.218,-54.81
-1.988,0.762,0.112,47.18,30.396,-131.47
-2.048,0.878,-0.104,90.332,16.418,-156.616
-2.519,0.885,-0.76,208.496,-63.66,-224.487
-2.671,-0.473,-1.508,186.89,-119.446,-268.738
-2.464,-0.933,-1.273,57.617,-13.733,-250.183
-0.825,-0.333,-0.491,30.701,42.48,-206.299
-0.774,-3.983,0.194,29.785,140.564,149.78
-0.445,-0.378,0.156,78.064,70.496,105.042
-0.285,0.03,-0.476,167.236,-13.55,57.007
0.156,0.496,-0.103,170.593,-80.322,65.369
0.25,0.558,0.137,56.946,-41.382,61.096
0.144,0.938,0.607,-59.448,-9.766,53.406
-0.466,1.124,0.148,-317.322,-64.941,51.941
-0.617,0.691,-0.007,-215.942,-37.964,50.232
-0.052,0.474,-0.118,34.79,16.785,69.275
0.091,0.588,-0.185,32.043,15.381,21.973
0.348,0.254,-0.099,44.189,46.143,-4.028
0.045,-0.386,0.155,-154.419,41.87,-18.86
0.076,-0.297,0.118,-171.692,63.293,-20.264
0.179,-1.636,1.287,-219.849,36.438,-40.283
-3.055,-0.096,-0.864,42.175,-69.214,39.856
-3.04,1.905,1.029,112.671,-70.129,75.684
0.414,0.757,-1.395,109.253,44.861,-82.642
-2.833,3.613,-0.452,-217.773,79.529,92.407
1.876,3.568,-0.426,217.529,-23.804,-152.954
-1.331,-0.832,-0.634,123.596,-105.347,-31.494
-3.608,-1.278,-1.166,65.857,-63.721,56.641
-0.43,-0.231,-0.31,-41.26,97.107,-50.598
-0.822,0.319,-0.111,-180.115,61.768,-44.373
-1.189,0.692,0.021,-163.452,55.176,-39.856
-1.093,0.623,0.126,19.165,-51.88,-104.736
-0.948,0.376,0.025,25.452,-5.066,-51.331
-0.747,-0.021,-0.111,1.709,-5.554,-90.942
-1.141,-0.26,0.063,-62.927,127.625,-38.635
-0.733,0.025,-0.007,31.982,-55.603,-47.546
-0.741,0.055,-0.027,52.795,-64.88,-40.527
-0.87,-0.078,-0.279,76.904,-105.347,-77.332
-0.703,-0.308,-0.181,93.872,28.992,-11.536
-1.013,0.219,-0.056,21.057,-4.395,-24.902
-0.961,0.31,-0.118,48.218,-26.489,-26.428
-1.023,0.193,-0.167,44.922,-8.728,-5.127
-0.905,0.117,-0.192,4.883,1.404,-13.855
-0.935,0.214,-0.167,-23.193,-4.883,-26.367
-0.933,0.21,-0.169,-21.973,-2.502,-24.109
-0.906,0.237,-0.087,3.784,1.526,-12.939
-0.937,0.233,-0.209,9.033,-14.221,-17.822
-0.928,0.225,-0.218,11.292,-8.484,-13.977
-0.942,0.224,-0.214,4.578,-8.545,-16.479
-0.932,0.205,-0.209,-6.836,-2.563,-17.273
-0.945,0.213,-0.215,-10.803,-1.221,-12.939
-0.935,0.218,-0.187,-8.118,-0.854,-8.057
-0.918,0.266,-0.218,2.136,-3.784,-1.953
-0.917,0.266,-0.212,-7.08,0.977,-3.174
-0.918,0.257,-0.211,-6.531,0.244,-1.892
-0.934,0.272,-0.218,-5.371,0.061,-0.488
-0.914,0.26,-0.204,-6.592,1.099,0.488
-0.913,0.269,-0.249,-6.592,0.122,0.793
-0.906,0.274,-0.22,-6.836,0.854,0.977
-0.906,0.281,-0.211,-7.324,1.16,1.16
-0.907,0.282,-0.207,-7.263,1.16,1.282
-0.912,0.279,-0.211,-5.005,1.709,1.77
-0.916,0.27,-0.214,-3.662,0.854,1.526
-0.923,0.264,-0.223,-2.991,-0.427,0.732
-0.924,0.264,-0.222,-3.479,-0.244,0.366
-0.914,0.269,-0.217,-2.747,0.488,0.793
-0.91,0.278,-0.215,-0.732,-0.732,0.488
-0.91,0.276,-0.217,0.366,-0.549,0.122
-0.914,0.275,-0.226,-1.892,0.366,-0.854
-0.916,0.257,-0.229,0.366,-0.122,-0.977
-0.915,0.259,-0.224,0.183,-0.305,-1.16
-0.915,0.267,-0.225,-0.488,-0.366,-1.221
-0.911,0.271,-0.223,-0.488,0.488,-0.854
-0.911,0.271,-0.224,-0.427,0.671,-0.427
-0.914,0.267,-0.226,1.77,0.122,0.671
-0.915,0.266,-0.228,2.014,-0.305,0.61
-0.911,0.256,-0.226,2.197,0.122,1.526
-0.917,0.254,-0.232,2.441,0.305,1.465
-0.917,0.262,-0.234,2.441,0.0,1.221
-0.912,0.262,-0.23,1.892,-0.305,1.282
-0.916,0.255,-0.223,1.892,0.916,2.075
-0.916,0.26,-0.222,1.587,0.244,1.465
-0.91,0.263,-0.219,0.732,0.793,1.526
-0.911,0.274,-0.221,0.732,0.305,0.061
-0.912,0.265,-0.223,1.526,0.732,0.549
-0.914,0.264,-0.221,1.831,0.122,-0.122
-0.91,0.265,-0.221,1.526,0.427,-0.244
-0.914,0.267,-0.217,1.587,0.122,-0.916
-0.914,0.266,-0.218,1.404,-0.061,-1.038
-0.913,0.262,-0.219,1.282,0.366,-0.854
-0.915,0.25,-0.221,1.282,0.549,-0.793
-0.919,0.247,-0.221,0.916,0.244,-0.977
-0.913,0.262,-0.222,-0.061,-0.549,-1.221
-0.912,0.266,-0.221,-0.61,-0.122,-1.16
-0.915,0.267,-0.22,-0.183,0.0,-0.488
-0.914,0.27,-0.218,-0.061,0.0,-0.61
-0.91,0.269,-0.222,0.305,-0.244,-0.671
-0.907,0.271,-0.222,0.916,0.061,-0.244
-0.912,0.261,-0.222,1.099,0.427,0.305
-0.911,0.269,-0.228,0.549,-0.305,-0.427
-0.912,0.268,-0.224,-0.305,0.061,-0.549
-0.914,0.259,-0.223,-0.488,0.793,0.0
-0.914,0.259,-0.222,-0.183,0.427,0.061
-0.914,0.262,-0.222,0.061,-0.061,-0.061
-0.912,0.271,-0.228,0.0,-0.122,-0.244
-0.91,0.267,-0.224,-0.061,0.61,0.244
-0.912,0.266,-0.223,0.0,0.427,0.0
-0.91,0.266,-0.227,-0.305,0.183,0.061
-0.909,0.269,-0.225,-0.366,0.366,0.183

-0.82,0.647,-0.3,35.828,23.376,136.597
-0.657,0.535,-0.27,39.917,33.02,128.723
-0.45,0.326,-0.271,43.762,42.725,124.756
-0.383,0.043,-0.29,36.682,42.419,123.047
-0.452,-0.188,-0.292,35.461,30.884,119.995
-0.595,-0.29,-0.253,33.081,14.099,116.821
-0.618,-0.353,-0.177,35.828,2.991,113.342
-2.21,-0.987,-0.064,31.128,-14.893,79.651
-2.058,-0.802,-0.142,17.7,-12.268,61.89
-1.43,-0.203,-0.213,12.329,-12.085,-7.751
-2.023,0.184,0.136,21.362,22.278,-49.011
-2.33,0.71,-0.081,95.154,2.808,-154.541
-2.474,0.827,-0.302,143.127,-1.343,-173.035
-2.346,0.652,-0.821,239.929,-20.935,-230.164
-1.368,-0.599,-0.818,136.902,-13.855,-265.93
-0.256,-2.17,-0.291,-28.137,97.29,-179.81
-0.734,-2.137,0.109,73.608,3.479,152.344
0.338,-0.18,-0.119,419.617,-101.99,128.296
0.059,1.305,0.85,87.28,-38.696,140.686
-1.012,-0.026,-0.944,-132.996,-7.935,108.154
0.002,0.362,0.171,-46.753,40.222,87.097
-0.125,0.819,0.329,-14.832,19.104,77.881
-0.021,0.404,-0.069,0.488,-27.832,6.836
-0.026,0.517,0.039,-21.973,-33.264,-28.076
0.501,0.71,0.028,-50.415,8.789,-112.671
0.467,0.079,-0.026,-39.917,-22.4,-128.784
0.25,-0.708,0.1,-80.444,11.841,-101.196
0.221,-1.278,0.188,-133.423,74.158,-68.481
-0.56,-1.269,0.421,-212.341,-2.38,-17.7
-1.741,-2.824,0.081,-264.282,30.579,54.749
-4.0,2.717,-0.429,406.189,-116.943,195.74
-3.269,-4.0,-0.001,-25.33,-122.009,156.433
-4.0,-3.96,1.227,-47.119,-48.218,298.584
-2.72,1.481,-0.052,-181.519,26.123,94.36
-0.128,1.214,-0.14,194.214,-38.879,-55.847
-0.804,0.521,-0.048,144.592,-55.664,-34.18
-1.91,-0.08,-0.679,73.914,-16.357,35.4
-1.237,-0.869,-0.715,-15.686,53.162,-20.935
-1.245,-1.263,-0.415,-131.165,74.036,-28.931
-1.525,-0.273,0.021,-248.962,127.319,-28.137
-1.307,0.404,0.219,201.599,-150.146,-111.267
-1.416,-0.312,-0.173,26.428,-114.929,-6.653
-1.203,0.175,-0.219,24.414,-33.447,-57.922
-0.847,-0.205,-0.089,-12.268,0.427,-67.505
-0.734,-0.136,-0.024,63.538,-78.796,-78.613
-0.699,-0.149,-0.125,56.58,-49.805,-86.792
-0.735,-0.303,-0.261,34.363,1.282,-50.11
-0.764,-0.298,-0.24,20.508,-6.287,-53.833
-0.979,-0.237,-0.043,-32.898,-3.235,-21.179
-0.947,0.084,-0.087,-2.441,-0.549,-28.564
-0.943,0.083,-0.1,-2.747,1.038,-27.527
-0.938,0.124,-0.19,10.071,-1.709,-17.456
-0.944,0.112,-0.185,11.78,-2.136,-16.174
-0.959,0.07,-0.197,15.32,-3.662,-14.16
-0.973,0.019,-0.209,-4.333,-1.892,-10.01
-0.936,0.134,-0.191,-10.315,-1.526,-7.568
-0.936,0.17,-0.182,-11.353,-2.991,-7.202
-0.933,0.231,-0.171,-5.859,-1.587,-1.648
-0.928,0.182,-0.211,2.563,-1.343,-1.648
-0.942,0.22,-0.177,-3.235,-2.319,-12.939
-0.953,0.145,-0.194,-3.418,2.197,2.319
-0.939,0.201,-0.2,-4.272,-1.099,1.404
-0.926,0.233,-0.203,-3.845,1.709,1.953
-0.918,0.234,-0.209,-4.333,1.465,1.587
-0.936,0.208,-0.191,-1.709,0.122,-1.221
-0.935,0.205,-0.19,-1.465,0.366,-1.16
-0.934,0.206,-0.189,-1.221,0.549,-0.671
-0.934,0.208,-0.201,-0.977,0.244,-0.244
-0.935,0.217,-0.206,0.305,0.244,-0.061
-0.933,0.222,-0.198,0.488,0.305,-0.549
-0.934,0.234,-0.196,-1.648,-0.061,-0.793
-0.935,0.227,-0.193,-2.319,0.366,-0.427
-0.935,0.217,-0.182,-1.648,1.587,0.427
-0.935,0.223,-0.187,0.671,-0.183,0.183
-0.937,0.222,-0.186,1.099,-0.183,0.122
-0.938,0.21,-0.184,2.319,-0.305,0.854
-0.933,0.223,-0.187,1.709,-0.061,0.916
-0.928,0.225,-0.194,3.113,-0.305,0.427
-0.941,0.192,-0.201,1.404,-0.488,-1.282
-0.94,0.203,-0.193,1.16,0.183,1.099
-0.934,0.209,-0.194,1.282,0.183,1.587
-0.933,0.211,-0.191,1.526,0.305,1.587
-0.93,0.221,-0.196,0.366,0.549,0.183
-0.927,0.224,-0.195,-0.427,0.977,-0.183
-0.926,0.222,-0.193,-1.282,0.61,-0.793
-0.933,0.217,-0.187,-1.404,1.099,-0.854
-0.934,0.214,-0.188,0.0,0.488,-0.793
-0.938,0.213,-0.19,0.061,0.671,-0.793
-0.937,0.21,-0.193,0.549,0.671,-0.61
-0.938,0.2,-0.2,0.427,0.305,-0.183
-0.929,0.208,-0.195,0.122,0.305,-0.427
-0.933,0.216,-0.198,-0.061,0.244,-1.221
-0.933,0.213,-0.2,0.0,0.122,-1.282
-0.937,0.209,-0.189,-0.854,0.305,-1.404
-0.934,0.212,-0.189,-0.122,0.61,-1.282
-0.935,0.208,-0.199,-1.038,-1.038,-1.648
-0.93,0.219,-0.188,-2.441,0.183,-1.404
-0.935,0.223,-0.194,-0.732,0.183,-1.038
-0.934,0.22,-0.195,-0.488,0.0,-0.366
-0.929,0.218,-0.196,0.61,-0.122,0.183
-0.931,0.226,-0.199,0.488,0.366,0.061
-0.934,0.219,-0.201,0.427,0.366,0.0
-0.931,0.218,-0.201,0.488,-0.061,0.061
-0.932,0.218,-0.199,0.305,-0.366,-0.183
-0.931,0.22,-0.2,0.732,-0.427,-0.183
-0.933,0.219,-0.201,0.427,-0.305,-0.122
-0.934,0.215,-0.201,0.183,0.061,0.366
-0.931,0.214,-0.199,0.061,0.061,0.427
-0.934,0.214,-0.2,-0.244,-0.061,0.549
-0.932,0.215,-0.199,-0.305,0.0,0.549
-0.934,0.22,-0.199,-0.061,0.305,0.671
-0.932,0.222,-0.198,0.0,0.244,0.854
-0.928,0.22,-0.196,0.427,0.488,0.977
-0.932,0.217,-0.199,0.732,0.732,0.793
-0.932,0.215,-0.204,-0.366,0.0,0.061
-0.931,0.212,-0.201,-0.916,0.549,0.183
-0.934,0.214,-0.2,-0.61,0.549,-0.122
-0.934,0.215,-0.203,0.305,0.305,0.427
-0.933,0.212,-0.194,0.183,0.854,1.404

-1.027,-0.501,-0.057,12.268,18.555,105.591
-0.987,-0.467,-0.049,13.916,27.771,100.952
-0.949,-0.41,-0.035,18.311,26.611,93.506
-0.981,-0.304,-0.025,16.235,16.602,86.243
-1.052,-0.205,-0.076,20.264,2.38,78.247
-1.142,-0.137,-0.17,40.039,-9.949,67.2
-1.41,-0.26,-0.403,67.078,-31.555,35.889
-1.867,-0.478,0.063,8.423,7.08,3.601
-1.748,-0.282,0.195,-9.155,40.222,-7.263
-2.155,0.3,0.29,31.067,32.898,-70.801
-2.073,0.387,0.221,92.468,21.118,-104.797
-2.376,0.597,-0.442,174.133,-14.587,-161.377
-2.453,0.565,-0.628,176.697,-20.813,-181.641
-2.472,0.288,-1.083,182.678,-24.536,-209.961
-1.256,-0.697,-1.106,129.578,-13.428,-218.567
-0.121,-0.757,-0.401,-104.614,52.917,-148.071
0.209,0.21,-0.187,306.763,-72.083,88.135
-0.064,1.536,1.087,-137.085,-17.7,50.781
-0.46,2.282,0.166,-390.015,-0.854,74.89
-0.853,0.947,-0.667,-337.769,-39.062,43.457
-0.418,0.04,0.644,-147.583,65.674,117.432
0.413,0.905,-0.049,-14.16,72.144,81.421
0.329,0.937,-0.053,-4.395,10.681,10.315
0.21,0.508,-0.083,10.132,17.456,36.56
0.223,0.429,-0.294,12.756,-37.598,-30.396
0.193,0.158,-0.147,-3.418,-29.968,-63.354
0.098,-0.173,0.076,-110.84,7.202,-125.427
0.26,-0.848,0.039,-182.129,74.097,-114.563
-0.154,-0.816,-0.006,-150.757,41.321,-79.468
-0.448,-1.743,0.48,-346.924,46.021,25.757
-4.0,2.219,-0.007,248.84,-93.506,191.467
-4.0,-4.0,1.978,-2.319,-168.884,209.412
-2.512,0.494,0.3,-93.933,153.076,249.878
-2.533,2.788,0.151,-156.372,33.081,132.141
-0.344,1.195,-0.366,252.808,-52.795,-72.083
-1.619,-0.388,-0.903,134.46,-104.37,-23.743
-2.4,-1.672,-1.237,87.097,-102.661,59.57
-1.077,-0.984,-0.709,-106.079,105.225,-51.208
-1.145,0.563,-0.27,-236.267,62.134,-56.824
-1.68,0.873,-0.316,-236.389,38.391,-47.668
-0.932,0.705,0.112,58.105,-176.758,-57.678
-1.275,0.134,-0.161,-11.169,-86.975,-91.431
-1.198,0.013,0.006,-26.489,27.466,-47.241
-0.945,0.06,-0.238,-2.563,-49.927,-78.369
-0.638,-0.246,-0.333,41.382,-41.626,-93.75
-0.69,-0.304,-0.456,-14.16,-56.763,-94.604
-0.99,0.145,0.032,35.828,-14.221,-53.772
-0.92,0.0,-0.301,-2.014,0.977,-17.639
-0.982,-0.002,-0.224,-3.662,12.451,-11.902
-0.996,-0.058,-0.219,-3.845,12.329,-8.789
-0.992,-0.002,-0.215,-10.193,3.052,-5.859
-0.96,0.109,-0.209,-13.306,15.442,1.648
-0.931,0.222,-0.197,-8.972,1.404,4.639
-0.934,0.253,-0.219,-3.601,1.587,7.141
-0.919,0.229,-0.225,8.911,4.578,9.521
-0.925,0.179,-0.241,8.24,-2.686,-2.563
-0.949,0.137,-0.235,-4.211,0.61,-5.127
-0.948,0.133,-0.23,-4.7,1.587,-4.333
-0.947,0.213,-0.205,1.953,-0.671,-1.343
-0.927,0.217,-0.216,12.451,0.671,3.784
-0.926,0.198,-0.223,14.465,0.61,3.479
-0.929,0.171,-0.238,14.038,0.488,3.113
-0.928,0.172,-0.245,12.695,0.366,2.686
-0.916,0.19,-0.262,2.258,-1.709,-3.418
-0.916,0.2,-0.254,-1.16,-1.953,-5.066
-0.915,0.203,-0.241,-3.601,0.366,-6.836
-0.922,0.219,-0.212,-5.981,1.648,-8.423
-0.926,0.219,-0.202,-5.493,1.343,-9.155
-0.931,0.205,-0.201,0.793,-1.038,-8.911
-0.941,0.184,-0.232,4.761,-2.502,-6.836
-0.942,0.183,-0.235,5.249,-2.441,-6.409
-0.937,0.179,-0.244,5.371,-1.221,-3.723
-0.942,0.179,-0.242,4.578,-1.038,-2.93
-0.941,0.174,-0.241,3.662,0.488,-1.343
-0.936,0.179,-0.241,3.174,0.671,-0.977
-0.933,0.194,-0.238,3.052,0.549,-0.793
-0.931,0.199,-0.235,2.869,0.977,-0.244
-0.923,0.222,-0.241,2.502,2.136,1.038
-0.927,0.223,-0.231,3.357,0.183,0.488
-0.927,0.207,-0.225,3.479,0.549,0.488
-0.928,0.206,-0.239,0.366,0.916,-0.427
-0.921,0.235,-0.23,-2.38,1.038,-1.221
-0.931,0.216,-0.224,-1.099,1.953,0.0
-0.931,0.216,-0.221,-0.916,1.404,-0.244
-0.928,0.21,-0.223,-0.793,0.61,-0.977
-0.929,0.205,-0.227,-1.221,0.977,-1.099
-0.93,0.204,-0.229,-1.77,0.854,-1.038
-0.929,0.211,-0.225,-2.441,1.221,-0.732
-0.926,0.228,-0.222,-2.625,0.427,-1.16
-0.924,0.234,-0.22,-2.197,0.427,-1.343
-0.922,0.232,-0.217,-0.793,0.977,-1.099
-0.921,0.223,-0.215,-0.916,1.221,-1.099
-0.93,0.201,-0.221,-0.061,0.916,-0.671
-0.931,0.201,-0.224,-0.183,0.732,-0.916
-0.933,0.205,-0.224,-0.488,0.122,-1.16
-0.932,0.208,-0.225,-0.732,0.244,-1.099
-0.931,0.202,-0.223,-0.427,0.732,-0.854
-0.931,0.201,-0.223,-0.244,0.549,-0.61
-0.934,0.209,-0.223,0.366,0.549,0.183
-0.93,0.215,-0.223,-0.122,0.549,-0.061
-0.927,0.218,-0.224,-0.061,0.488,0.061
-0.926,0.218,-0.224,0.366,0.549,0.244
-0.93,0.213,-0.222,0.916,0.488,0.366
-0.928,0.213,-0.223,0.916,0.305,0.183
-0.929,0.215,-0.226,1.16,-0.183,-0.061
-0.928,0.216,-0.226,1.221,-0.183,-0.183
-0.929,0.209,-0.224,1.038,-0.061,0.61
-0.929,0.216,-0.224,1.221,-0.122,0.0
-0.922,0.218,-0.226,1.221,-0.244,-0.122
-0.925,0.214,-0.227,0.916,-0.122,-0.305
-0.928,0.213,-0.228,0.732,0.0,-0.305
-0.927,0.215,-0.227,0.61,-0.427,-0.366
-0.926,0.221,-0.225,0.793,-0.061,-0.977
-0.926,0.211,-0.224,0.305,0.488,-0.854
-0.927,0.209,-0.225,0.183,0.305,-1.038
-0.93,0.214,-0.224,-0.427,0.0,-1.16
-0.928,0.214,-0.223,-0.488,0.183,-1.221
-0.929,0.212,-0.224,-0.732,0.122,-1.221
-0.934,0.202,-0.228,0.0,0.122,0.122

-1.006,-0.594,-0.09,22.949,-3.906,99.609
-0.955,-0.577,-0.04,34.79,1.038,96.558
-0.894,-0.491,-0.084,30.945,8.118,90.027
-0.888,-0.414,-0.128,20.081,11.047,81.238
-0.941,-0.362,-0.187,21.973,5.981,71.411
-1.612,-0.349,-0.331,41.931,-41.26,15.991
-1.668,-0.123,-0.381,33.264,-21.729,4.578
-1.675,-0.137,-0.155,16.357,11.597,-9.644
-1.721,-0.033,0.359,14.526,39.368,-20.142
-1.934,0.138,0.395,64.514,35.95,-80.017
-2.128,0.537,-0.123,117.981,4.944,-135.864
-2.497,0.123,-0.978,190.674,-44.922,-243.53
-0.525,-1.377,-0.398,67.749,26.672,-184.021
0.05,-0.531,-1.135,378.174,-150.33,108.398
0.176,0.218,-0.158,336.243,-88.135,86.975
-0.171,1.445,1.027,-71.472,13.916,112.671
-0.088,3.152,0.273,-450.439,4.15,81.665
-0.808,0.321,-1.424,-135.376,-12.817,95.642
-0.84,0.14,0.667,-65.796,11.597,106.812
0.032,0.806,-0.069,-65.002,0.549,63.11
-0.065,0.562,0.276,-48.096,-39.795,45.654
-0.056,0.592,0.095,-20.63,-3.113,62.195
0.047,0.867,0.2,-11.414,-33.325,-34.729
0.164,0.726,0.3,-15.259,-35.889,-107.849
0.358,0.027,-0.164,-10.071,-46.997,-202.576
0.182,-1.329,0.272,-129.761,104.126,-98.755
0.185,-1.066,-0.072,-117.249,107.971,-109.619
-3.264,-4.0,-0.439,-396.484,-78.003,208.618
-0.737,0.205,0.22,119.385,-79.529,101.99
-2.698,1.731,-0.045,-132.69,9.888,170.227
-1.663,3.646,-0.834,-52.49,-18.25,16.296
-0.958,0.097,-0.267,200.195,-70.068,-15.93
-2.304,-0.559,-0.955,128.967,-65.247,24.475
-2.041,-0.814,-0.516,28.442,91.492,19.653
-0.722,-0.452,-0.232,-140.686,147.217,-44.739
-1.57,-0.118,-0.523,-197.327,36.743,-90.698
-1.219,0.418,-0.271,-202.942,108.582,-45.654
-1.124,0.214,0.05,133.972,-81.543,-59.937
-1.432,0.01,-0.138,168.518,-124.878,-52.734
-1.269,-0.344,0.044,138.733,-62.073,-20.691
-0.829,-0.146,-0.264,5.188,6.104,-14.221
-0.646,0.15,-0.064,-31.006,2.319,-37.72
-0.664,-0.031,-0.126,-31.189,-14.221,-57.129
-0.687,-0.434,0.02,-52.49,-5.92,-49.316
-0.647,0.164,-0.009,-32.532,9.277,-12.756
-0.77,0.619,-0.076,56.03,-20.691,-41.87
-0.761,0.757,0.07,103.21,-27.527,-75.684
-1.242,-1.012,-0.309,23.071,0.671,-21.057
-1.171,-0.222,-0.528,4.578,-35.4,-34.302
-1.316,-0.059,-0.322,7.996,-41.443,-45.41
-0.976,0.031,-0.15,-3.662,15.076,-21.667
-0.817,0.221,-0.086,-14.343,3.479,-23.499
-0.884,0.269,-0.098,-7.141,-1.038,-29.053
-0.968,0.067,-0.184,-19.592,8.484,-10.864
-0.939,0.207,-0.164,20.386,-4.639,-3.418
-0.943,0.179,-0.189,20.813,-4.15,-2.808
-0.959,0.095,-0.25,7.385,-3.479,-0.549
-0.956,0.12,-0.258,2.502,-2.686,-1.404
-0.955,0.135,-0.25,-0.488,-2.747,-2.075
-0.946,0.193,-0.184,-8.606,0.0,-1.343
-0.948,0.213,-0.152,-10.742,1.038,0.732
-0.94,0.225,-0.137,-8.118,0.549,2.625
-0.94,0.225,-0.125,-1.038,-0.305,3.052
-0.938,0.219,-0.136,1.892,-0.916,2.686
-0.934,0.201,-0.192,7.69,-3.174,1.221
-0.94,0.173,-0.234,3.296,-2.625,0.366
-0.939,0.174,-0.232,0.977,-2.075,0.366
-0.94,0.188,-0.207,-3.845,0.061,0.549
-0.943,0.188,-0.182,-2.747,0.122,0.793
-0.942,0.168,-0.195,1.953,-1.099,-0.488
-0.944,0.163,-0.201,2.258,-1.404,-0.61
-0.949,0.164,-0.199,-1.038,-1.526,-0.732
-0.948,0.169,-0.201,-1.343,-1.038,-0.671
-0.94,0.181,-0.208,-1.892,-1.099,-0.549
-0.932,0.182,-0.206,-1.648,-0.61,-0.549
-0.946,0.173,-0.197,-1.648,-0.488,-1.16
-0.948,0.164,-0.211,-3.601,-0.183,-1.221
-0.939,0.168,-0.199,-6.104,1.16,-1.16
-0.939,0.194,-0.208,-5.554,0.488,-1.099
-0.936,0.204,-0.2,-6.348,1.587,-1.892
-0.933,0.199,-0.192,-5.615,3.723,-1.099
-0.94,0.192,-0.2,-1.16,-0.366,-2.38
-0.939,0.187,-0.204,-0.183,-0.305,-2.136
-0.945,0.18,-0.2,0.488,-0.427,-1.526
-0.942,0.175,-0.213,1.77,-0.732,-0.916
-0.939,0.182,-0.211,1.404,-0.122,-0.549
-0.936,0.2,-0.199,0.427,0.549,-0.671
-0.939,0.196,-0.192,-0.183,0.305,-0.977
-0.941,0.191,-0.206,-0.427,-0.549,-0.977
-0.937,0.194,-0.2,0.122,-0.366,-0.916
-0.94,0.199,-0.202,0.61,-0.793,-0.977
-0.942,0.203,-0.203,2.136,-0.977,-0.488
-0.944,0.2,-0.198,-0.122,0.427,0.488
-0.937,0.191,-0.208,1.282,0.916,2.441
-0.941,0.193,-0.199,-0.977,1.587,2.563
-0.94,0.19,-0.2,-2.625,2.075,2.563
-0.937,0.19,-0.199,-2.563,1.892,2.319
-0.937,0.186,-0.196,-2.869,1.465,1.953
-0.94,0.183,-0.196,-2.93,1.404,1.709
-0.943,0.172,-0.194,-1.465,0.366,1.343
-0.946,0.174,-0.197,-1.465,0.427,1.099
-0.944,0.173,-0.196,-2.441,1.221,1.465
-0.942,0.171,-0.197,-3.113,0.793,1.099
-0.942,0.171,-0.193,-3.235,0.977,1.099
-0.939,0.167,-0.196,1.099,0.488,2.136
-0.943,0.167,-0.206,0.244,0.183,0.244
-0.945,0.164,-0.198,0.0,0.061,0.183
-0.946,0.162,-0.195,0.0,0.061,0.183
-0.95,0.163,-0.197,0.671,-0.122,0.854
-0.946,0.16,-0.196,0.732,0.366,1.282
-0.946,0.16,-0.197,0.366,0.488,1.282
-0.943,0.16,-0.202,-0.183,0.671,1.038
-0.943,0.172,-0.201,-1.16,0.366,0.061
-0.945,0.169,-0.198,-1.221,1.099,0.488
-0.945,0.167,-0.193,-0.427,0.61,0.732
-0.948,0.166,-0.193,1.221,-0.061,-0.061
-0.949,0.148,-0.2,0.977,0.122,0.183
-0.945,0.151,-0.197,0.549,0.0,-0.122
-0.946,0.152,-0.197,0.0,0.244,0.0

-1.129,-0.925,0.294,42.358,-7.141,121.277
-1.292,-0.594,0.231,51.147,5.981,119.934
-1.301,-0.449,0.156,48.401,19.043,110.596
-1.232,-0.355,0.075,45.41,21.057,98.45
-1.124,-0.256,-0.068,59.57,13.0,82.703
-1.121,-0.179,-0.141,87.28,-5.92,63.416
-1.577,-0.195,-0.49,111.633,-45.044,22.888
-1.823,-0.336,-0.578,98.328,-41.565,12.512
-1.924,0.125,0.34,-1.587,23.438,-59.57
-1.842,0.244,0.446,10.376,29.114,-72.571
-2.193,0.774,-0.037,148.987,5.554,-139.343
-2.303,0.879,-0.687,233.765,-37.781,-220.215
-2.146,0.043,-1.673,225.098,-63.354,-241.394
-1.971,-0.489,-1.766,174.622,-55.664,-235.962
-0.844,-1.009,-0.646,-47.913,86.182,-139.343
-0.996,-4.0,0.0,-107.544,133.667,66.711
-0.017,-0.19,-0.069,405.762,-144.165,104.614
-0.155,1.148,1.109,-71.289,34.424,149.048
0.013,2.071,0.722,-243.042,76.721,195.068
-0.918,0.352,-0.159,-249.268,-11.78,61.89
-0.648,-0.123,0.624,-290.588,6.287,99.609
-0.024,0.473,0.345,-124.207,20.142,86.304
0.132,0.485,0.28,14.893,-22.339,47.791
0.205,0.458,0.194,7.568,15.869,52.734
0.185,0.423,0.156,7.019,4.517,33.386
0.268,0.649,-0.054,36.255,2.38,-54.81
0.275,0.557,-0.267,19.714,-23.865,-141.541
0.098,-0.215,-0.085,-33.264,7.446,-121.216
0.211,-0.485,-0.343,-72.754,29.358,-101.196
-0.158,-1.655,0.782,-180.359,22.583,-88.318
-0.485,-4.0,-1.929,-356.567,67.261,-37.781
0.217,0.034,-0.697,177.063,7.202,-32.776
-3.393,-4.0,-0.212,-67.139,-137.573,58.35
-2.712,2.757,0.092,-166.809,22.705,111.938
-2.411,3.717,-0.725,-89.05,-30.945,32.288
-0.38,1.376,-0.019,196.045,-90.21,-67.81
-2.042,-0.761,-0.718,51.147,-56.03,36.682
-1.348,-0.859,-0.478,-125.061,94.36,-41.992
-1.159,0.445,0.042,-142.7,116.699,-27.344
-1.07,0.65,0.151,7.568,-57.251,-66.284
-1.13,0.111,-0.223,195.19,-122.314,-97.229
-1.212,0.109,-0.773,47.058,-42.542,-28.564
-0.806,-0.165,-0.534,80.444,159.302,80.444
-1.041,-0.214,-0.389,-19.531,-95.642,-136.719
-0.891,-0.186,-0.306,-65.979,16.113,-69.519
-0.771,0.013,-0.223,-84.351,25.635,-81.177
-0.54,-0.014,-0.091,-34.119,45.349,-37.109
-0.746,-0.155,-0.196,-27.466,-19.348,-100.403
-0.691,-0.204,-0.157,-21.729,-2.93,-88.074
-0.83,-0.277,-0.128,-58.96,-47.546,-74.89
-1.012,-0.108,-0.06,-63.599,15.93,-36.743
-0.941,-0.036,0.101,-47.607,62.378,-24.292
-0.912,-0.097,-0.185,68.176,-23.132,-29.541
-0.91,-0.057,-0.53,15.564,-20.02,-38.94
-0.9,0.146,-0.354,-19.47,-10.62,-39.429
-0.948,0.147,-0.131,-7.263,13.794,-22.339
-0.944,0.105,-0.12,-1.465,12.451,-20.63
-0.948,0.115,-0.22,14.648,3.052,-11.719
-0.945,0.142,-0.283,9.399,-6.348,-10.254
-0.919,0.176,-0.313,2.625,1.343,-7.69
-0.955,0.175,-0.195,3.357,-0.183,-7.996
-0.946,0.177,-0.232,7.446,-6.409,-10.01
-0.936,0.183,-0.277,6.226,-6.897,-9.644
-0.925,0.22,-0.269,4.456,-4.7,-7.874
-0.918,0.215,-0.282,4.15,-2.625,-5.249
-0.924,0.201,-0.278,4.028,-2.136,-4.639
-0.93,0.206,-0.267,2.319,-1.343,-3.784
-0.93,0.195,-0.25,1.404,-0.732,-1.282
-0.926,0.219,-0.24,0.671,-1.282,-1.465
-0.92,0.231,-0.249,0.977,-1.587,-1.831
-0.903,0.241,-0.273,-0.916,-0.488,-2.014
-0.905,0.231,-0.273,-0.977,0.122,-1.587
-0.92,0.22,-0.274,-1.526,0.427,-1.343
-0.924,0.227,-0.272,-1.648,-0.122,-1.221
-0.922,0.236,-0.263,-0.732,-0.488,-0.732
-0.921,0.233,-0.259,1.709,-0.366,0.854
-0.919,0.23,-0.249,6.592,-1.099,0.916
-0.91,0.216,-0.268,5.981,-1.404,0.427
-0.911,0.228,-0.271,3.296,-0.916,-0.916
-0.909,0.249,-0.259,0.977,-0.732,-1.404
-0.912,0.249,-0.251,0.854,0.122,-1.282
-0.914,0.246,-0.249,1.099,0.183,-1.221
-0.92,0.234,-0.248,3.296,-0.061,-0.732
-0.915,0.222,-0.262,3.54,0.061,0.061
-0.915,0.228,-0.264,3.174,0.061,0.244
-0.917,0.237,-0.267,2.441,0.061,0.183
-0.915,0.241,-0.263,1.16,0.427,0.61
-0.914,0.242,-0.263,0.977,0.793,0.488
-0.909,0.243,-0.26,0.61,0.793,0.671
-0.906,0.249,-0.261,-0.183,0.793,0.305
-0.908,0.251,-0.262,-0.671,0.854,0.0
-0.915,0.228,-0.261,-1.892,1.038,-0.61
-0.917,0.226,-0.262,-3.296,1.526,-0.122
-0.918,0.241,-0.252,-4.333,1.404,-0.183
-0.92,0.244,-0.251,-4.395,1.404,-0.305
-0.914,0.242,-0.257,-3.174,1.587,0.427
-0.916,0.244,-0.256,-2.93,1.526,0.671
-0.915,0.241,-0.252,-2.441,1.77,1.099
-0.915,0.232,-0.258,-0.854,1.404,1.099
-0.915,0.228,-0.257,-0.854,1.526,1.16
-0.917,0.22,-0.26,-1.465,1.404,0.732
-0.918,0.219,-0.255,-2.441,1.343,0.488
-0.921,0.219,-0.252,-2.93,1.343,0.61
-0.924,0.223,-0.25,-2.991,1.648,0.671
-0.919,0.231,-0.241,-1.77,1.404,1.038
-0.919,0.233,-0.241,-1.16,0.732,1.16
-0.921,0.231,-0.245,0.244,0.854,1.709
-0.915,0.227,-0.251,1.282,0.427,2.014
-0.916,0.231,-0.253,1.038,0.305,2.014
-0.912,0.239,-0.245,0.427,0.61,0.977
-0.914,0.241,-0.24,0.671,0.61,0.427
-0.915,0.226,-0.245,1.953,0.549,0.061
-0.916,0.222,-0.25,1.892,0.244,0.0
-0.921,0.221,-0.255,1.282,0.366,-0.305
-0.923,0.222,-0.259,0.732,0.671,0.0
-0.916,0.238,-0.24,-0.549,1.648,0.977
-0.923,0.233,-0.242,1.221,1.404,1.648
-0.924,0.228,-0.242,1.892,1.343,1.77
-0.922,0.223,-0.248,2.502,0.671,1.709

-1.089,-0.599,-0.096,-9.583,23.682,107.666
-1.088,-0.526,0.002,-2.441,27.527,98.694
-1.084,-0.466,-0.042,-0.427,25.696,85.815
-1.142,-0.412,-0.045,-9.216,24.231,74.036
-1.125,-0.351,-0.02,-6.836,35.217,62.134
-1.125,-0.3,-0.07,5.554,28.564,46.631
-1.172,-0.31,-0.157,24.658,11.292,30.518
-1.863,-0.313,-0.018,43.884,-9.705,5.615
-1.856,-0.156,0.012,38.452,48.279,-15.259
-1.867,-0.055,-0.033,56.519,34.851,-52.612
-2.012,0.362,-0.103,101.746,-3.235,-108.826
-2.101,0.535,-0.391,136.719,-29.114,-153.503
-2.271,0.392,-0.825,149.719,-38.757,-183.411
-2.321,-0.092,-1.116,133.484,-37.964,-225.525
-2.1,-0.82,-0.361,27.466,44.006,-251.831
-0.993,-0.306,0.031,-23.56,108.643,-212.769
-0.952,-4.0,-0.692,-184.509,176.88,-92.896
-1.119,-4.0,-0.708,-50.476,29.114,167.114
-0.23,-1.106,-0.681,104.309,11.353,162.964
0.362,0.918,0.474,216.98,-82.703,111.145
-0.352,1.84,1.802,16.357,-32.532,123.779
-0.712,2.078,-0.433,-6.836,-22.583,71.106
-0.328,-0.155,-0.317,56.274,-76.904,33.569
-0.313,0.143,-0.203,-132.935,3.601,69.946
-0.113,0.499,0.013,-150.879,-26.306,34.18
0.028,0.771,0.145,-37.048,-46.753,2.686
-0.004,0.344,0.001,-62.439,-2.808,12.817
0.156,0.286,-0.035,-70.557,27.039,15.564
0.203,-0.094,0.073,-97.29,3.113,-143.799
0.269,-0.196,0.16,-117.004,30.762,-142.883
0.211,-0.553,0.258,-127.197,70.74,-104.797
0.019,-0.679,-0.183,-76.538,35.828,-61.584
-0.355,-1.449,0.499,-203.613,-9.705,-4.395
-4.0,1.684,1.133,196.472,-96.985,108.887
-4.0,-3.569,1.717,104.675,53.162,346.191
-2.793,1.706,-0.155,-62.134,52.734,266.602
-2.554,3.107,-0.572,-46.143,3.845,187.744
-0.537,0.811,-0.346,218.262,-107.117,-39.185
-1.339,-0.855,-1.075,161.987,-74.646,3.601
-2.099,-1.45,-1.159,-21.973,-34.058,35.95
-1.008,-0.524,-0.358,-155.151,103.577,-106.018
-1.074,0.321,-0.124,-173.279,6.226,-75.5
-1.772,0.775,-0.362,-145.142,2.197,-83.435
-0.912,0.598,0.233,132.385,-51.208,-120.605
-0.969,0.321,-0.376,72.021,-26.55,-18.433
-1.305,0.18,-0.107,51.514,45.471,-6.348
-1.136,-0.28,-0.237,45.105,-116.516,-150.94
-1.093,-0.207,-0.351,13.306,-31.982,-83.252
-0.94,-0.024,-0.293,-34.424,28.259,-40.527
-0.925,0.019,-0.266,-59.326,-22.217,-56.091
-0.662,-0.038,-0.092,-56.641,37.842,-54.016
-0.614,0.146,-0.159,-4.578,-48.462,-92.041
-0.715,0.117,-0.215,14.893,-31.982,-85.266
-0.651,0.084,-0.13,10.132,-11.414,-77.332
-0.682,0.11,0.019,-1.892,-16.968,-75.012
-0.909,0.068,0.118,8.24,-19.104,-58.533
-0.996,-0.146,-0.343,71.655,-15.137,-50.11
-1.049,-0.102,-0.442,19.958,-22.4,-52.795
-0.945,0.162,-0.308,-20.752,-10.681,-49.5
-0.922,0.199,-0.227,-24.902,-7.324,-48.401
-0.917,0.276,-0.141,-13.672,7.629,-39.978
-0.896,0.144,-0.259,2.686,14.709,-22.522
-0.911,0.108,-0.287,3.052,9.46,-21.179
-0.967,0.163,-0.297,-11.658,0.427,-15.869
-0.981,0.279,-0.156,-14.587,-0.488,-6.958
-0.911,0.297,-0.119,-0.366,3.113,0.732
-0.895,0.193,-0.225,12.39,0.122,1.343
-0.898,0.139,-0.269,10.193,1.648,3.479
-0.915,0.189,-0.284,7.141,-2.93,0.366
-0.933,0.372,-0.282,0.366,-8.85,-8.057
-0.909,0.349,-0.268,-3.113,-7.263,-8.789
-0.929,0.264,-0.168,-4.7,2.991,1.526
-0.933,0.28,-0.184,-0.854,0.671,1.587
-0.922,0.273,-0.255,5.615,-0.916,5.066
-0.914,0.261,-0.268,4.883,-0.61,5.615
-0.892,0.252,-0.26,-0.61,2.38,3.479
-0.896,0.271,-0.228,-7.69,2.319,1.282
-0.9,0.311,-0.213,-8.911,0.671,-1.465
-0.904,0.313,-0.216,-8.301,0.488,-1.404
-0.91,0.291,-0.214,-5.737,2.075,-0.549
-0.914,0.282,-0.214,-4.028,2.625,0.427
-0.919,0.256,-0.222,0.366,2.075,2.625
-0.921,0.251,-0.245,2.747,-1.465,1.831
-0.915,0.25,-0.236,0.488,0.427,2.869
-0.912,0.249,-0.23,0.061,1.16,3.784
-0.914,0.255,-0.223,0.61,0.122,3.601
-0.914,0.259,-0.224,0.366,-0.366,2.441
-0.916,0.257,-0.229,-0.549,1.526,2.93
-0.909,0.254,-0.232,-2.319,1.77,2.563
-0.909,0.252,-0.231,-2.441,1.648,2.441
-0.913,0.257,-0.221,-4.883,2.136,0.977
-0.915,0.258,-0.222,-4.944,2.136,0.793
-0.918,0.27,-0.222,-4.7,1.648,0.366
-0.915,0.271,-0.225,-4.211,1.282,0.366
-0.915,0.262,-0.229,-3.418,0.854,0.793
-0.926,0.25,-0.224,-2.869,0.488,0.916
-0.92,0.243,-0.226,-2.014,2.075,2.869
-0.917,0.244,-0.225,-2.136,1.099,2.319
-0.92,0.244,-0.227,-2.014,0.427,2.014
-0.922,0.244,-0.227,-1.77,0.488,2.136
-0.919,0.245,-0.22,-1.221,1.648,3.113
-0.917,0.245,-0.221,-1.16,1.892,3.235
-0.917,0.256,-0.224,0.305,0.671,2.441
-0.917,0.252,-0.22,0.488,0.854,2.502
-0.918,0.247,-0.219,0.549,1.16,2.441
-0.921,0.241,-0.221,1.038,0.977,2.258
-0.922,0.238,-0.215,2.686,0.671,2.686
-0.926,0.233,-0.218,3.052,0.732,2.625
-0.923,0.233,-0.218,3.174,0.183,2.441
-0.921,0.238,-0.22,2.563,0.122,1.77
-0.924,0.227,-0.217,1.099,0.854,1.16
-0.924,0.224,-0.218,0.916,1.099,1.16
-0.927,0.229,-0.222,0.0,-0.244,-0.061
-0.925,0.227,-0.219,-0.244,0.305,0.732
-0.923,0.225,-0.219,-0.244,0.305,1.099
-0.928,0.221,-0.222,0.183,0.061,1.343
-0.929,0.22,-0.221,0.183,0.0,1.404
-0.931,0.216,-0.226,-0.61,0.549,2.014
-0.929,0.216,-0.225,-1.16,0.793,2.625

-0.568,0.57,-0.289,-15.137,70.435,149.414
-0.392,0.498,-0.145,6.592,61.096,132.751
-0.304,0.412,0.146,-3.235,50.232,117.31
-0.283,0.268,0.1,-7.874,45.288,101.257
-0.322,0.117,-0.272,29.236,21.912,82.031
-0.489,-0.28,-0.417,49.255,-10.132,68.97
-0.777,-0.679,-0.47,51.636,-3.479,67.749
-2.385,-1.231,-0.009,67.749,-37.72,105.896
-1.326,-0.462,-0.2,53.589,-24.841,9.705
-1.319,0.047,-0.461,57.19,-32.41,-5.371
-1.994,-0.149,-0.18,35.828,-16.296,-31.189
-1.987,-0.13,0.009,2.686,39.429,-48.767
-2.119,-0.156,0.104,-8.728,39.673,-58.472
-1.944,0.499,0.126,81.238,13.123,-126.77
-2.18,0.911,-0.51,163.879,-25.818,-158.63
-2.17,0.786,-0.671,202.271,-23.132,-161.133
-2.034,-0.176,-1.746,219.971,-71.045,-212.402
-1.663,-0.569,-0.633,64.026,19.653,-192.017
-0.352,-1.309,0.443,-98.877,151.611,-108.643
-0.343,-3.995,0.022,-117.188,162.903,-74.097
-0.213,-1.784,-1.669,107.544,-44.312,128.601
-0.177,-0.601,-0.619,244.324,-113.892,120.85
-0.337,1.48,1.289,-51.697,7.141,149.109
-0.431,1.263,1.223,-99.854,46.448,181.763
-0.799,0.875,-0.094,-254.761,-40.833,109.863
-0.444,0.658,0.072,-39.978,-15.93,113.22
0.034,0.341,0.101,11.78,13.428,63.965
-0.09,0.469,-0.019,-20.142,-27.161,39.673
0.301,0.619,0.1,-53.833,23.01,-48.95
0.493,0.571,-0.048,-56.946,23.926,-99.854
0.315,-0.072,-0.39,-34.973,-11.963,-124.451
0.006,-0.712,0.067,-142.151,46.814,-75.378
-0.173,-0.899,0.562,-155.945,33.02,-73.364
-4.0,2.479,0.327,121.521,-126.526,139.893
0.277,-0.844,0.093,86.914,50.11,-29.907
-3.938,-4.0,0.828,-120.117,-76.965,12.939
-2.682,4.0,0.063,-23.621,91.614,142.395
-0.573,1.278,-0.294,242.188,-64.026,-79.712
-2.048,-0.566,-1.126,120.605,-124.451,65.125
-1.788,-1.102,-0.924,125.427,-77.271,109.741
-1.301,-1.136,-0.794,-109.192,65.918,-0.244
-1.063,-0.29,-0.431,-211.792,129.211,-16.113
-1.511,0.272,-0.215,-97.778,-48.584,-40.344
-0.786,-0.127,0.284,2.93,48.95,-16.907
-1.138,-0.179,0.004,-73.303,95.703,17.761
-0.981,-0.425,0.062,-63.66,59.631,-2.686
-1.039,-0.29,-0.006,10.559,-32.959,-39.795
-1.06,-0.071,-0.033,-17.578,-7.874,-42.48
-0.732,-0.144,0.001,7.935,12.085,-51.086
-0.95,-0.391,-0.181,10.315,-18.25,-68.054
-0.821,-0.234,-0.13,-15.564,22.949,-65.002
-0.673,-0.11,0.015,-16.052,14.404,-56.519
-0.857,-0.135,0.0,19.348,-25.94,-53.101
-0.909,-0.26,-0.015,55.786,-26.917,-50.354
-0.834,-0.403,-0.112,56.274,-28.137,-48.157
-1.0,-0.261,-0.112,11.78,-17.212,-29.846
-0.901,-0.211,-0.161,-1.831,14.282,-1.343
-0.932,-0.11,-0.119,0.0,1.648,-3.784
-0.978,-0.092,-0.162,13.306,-3.906,-3.662
-0.967,-0.072,-0.088,10.071,1.648,-1.648
-0.984,-0.131,-0.145,10.803,2.38,1.831
-0.974,0.013,-0.133,11.841,-6.897,-3.174
-0.967,0.095,-0.122,8.24,-5.493,-6.104
-1.003,0.021,-0.079,-4.944,1.77,-2.747
-0.958,0.003,-0.123,12.268,-0.427,-2.747
-0.958,-0.022,-0.119,14.893,-1.099,-2.747
-0.969,-0.073,-0.139,15.991,-2.502,-1.465
-0.974,-0.086,-0.158,13.428,-2.136,-1.038
-0.963,-0.057,-0.151,-1.953,0.488,0.916
-0.972,-0.063,-0.152,-4.822,0.61,1.282
-0.981,-0.042,-0.119,-8.667,1.526,0.732
-0.981,-0.003,-0.135,-3.479,-0.854,-0.977
-0.978,-0.012,-0.121,-3.113,0.671,0.488
-0.975,-0.038,-0.128,-3.357,1.648,0.671
-0.972,-0.025,-0.117,-2.686,1.343,0.427
-0.973,0.007,-0.125,-1.953,-0.122,0.671
-0.977,0.002,-0.133,2.319,-0.916,0.122
-0.981,-0.004,-0.142,2.502,-2.197,-1.587
-0.982,-0.009,-0.133,2.563,-1.526,-1.465
-0.978,-0.028,-0.135,-0.732,-1.465,-2.625
-0.974,-0.032,-0.132,-3.357,-1.282,-3.235
-0.97,-0.04,-0.138,-3.052,-1.282,-2.991
-0.965,-0.009,-0.149,-2.93,-1.77,-1.16
-0.977,-0.016,-0.137,-4.15,-1.099,-0.244
-0.979,0.001,-0.139,-4.211,-1.038,-0.732
-0.977,0.015,-0.144,-4.089,-1.526,-1.343
-0.975,0.004,-0.151,-3.357,-0.793,-1.892
-0.977,0.004,-0.148,-3.418,-1.526,-2.563
-0.973,0.011,-0.14,-3.418,-2.258,-2.869
-0.976,0.001,-0.145,-3.479,-2.258,-3.235
-0.97,0.006,-0.157,-2.686,-2.502,-3.357
-0.974,-0.005,-0.16,-4.028,-2.686,-3.723
-0.973,-0.011,-0.153,-4.456,-2.197,-3.296
-0.969,0.016,-0.163,-4.333,-2.38,-3.479
-0.975,0.012,-0.153,-4.211,-1.587,-3.601
-0.972,0.016,-0.157,-3.54,-1.526,-4.028
-0.971,0.026,-0.172,-4.7,-1.221,-4.517
-0.971,0.015,-0.161,-4.761,-1.831,-5.432
-0.969,0.015,-0.165,-5.066,-1.892,-5.432
-0.97,0.021,-0.178,-4.395,-1.221,-4.211
-0.961,0.036,-0.169,-2.014,-1.404,-3.357
-0.97,0.029,-0.174,-0.854,-1.526,-2.869
-0.97,0.026,-0.175,-1.038,-1.282,-2.93
-0.97,0.03,-0.177,-1.038,-1.221,-2.502
-0.965,0.039,-0.178,-0.305,-0.732,-2.563
-0.967,0.039,-0.174,-0.061,-0.793,-2.197
-0.97,0.035,-0.173,-1.16,0.0,-1.648
-0.967,0.045,-0.178,0.732,-0.977,-1.77
-0.967,0.059,-0.167,0.183,-1.16,-1.587
-0.969,0.056,-0.168,0.488,-0.427,-1.221
-0.968,0.046,-0.175,0.244,-0.61,-1.282
-0.968,0.042,-0.18,1.038,-0.732,-1.465
-0.969,0.046,-0.173,-0.061,-0.61,-1.404
-0.965,0.049,-0.18,0.549,0.122,-1.282
-0.966,0.045,-0.176,0.305,-0.061,-1.343
-0.961,0.051,-0.184,1.16,0.671,0.916
-0.964,0.051,-0.181,1.77,0.305,1.099
-0.969,0.052,-0.177,2.319,0.549,1.709
-0.969,0.062,-0.179,1.038,0.427,0.549

-1.145,-0.629,0.056,29.236,5.127,78.613
-1.272,-0.655,0.047,22.278,4.639,66.162
-1.342,-0.642,0.089,3.54,10.498,54.626
-1.299,-0.54,0.071,-10.62,19.836,42.664
-1.341,-0.438,0.044,-13.672,18.799,29.602
-1.34,-0.316,0.015,-21.606,32.532,20.569
-1.367,-0.207,-0.005,-18.921,41.26,16.113
-1.657,-0.122,-0.014,19.592,16.357,4.456
-1.765,-0.114,-0.034,31.372,14.038,-0.427
-1.727,-0.141,-0.045,50.11,20.02,-15.564
-1.696,0.114,0.05,87.83,12.512,-62.927
-1.692,0.097,-0.015,103.882,9.888,-75.195
-2.115,-0.01,-0.214,133.545,1.038,-95.093
-2.28,-0.026,-0.318,161.804,-2.563,-160.522
-2.042,0.124,-0.706,187.5,-12.634,-216.614
-1.388,-0.595,-0.649,124.329,18.372,-183.594
-0.472,-3.333,-0.426,-75.256,85.083,-103.882
-0.728,-1.883,-0.718,33.936,-46.875,184.814
-0.279,1.665,0.527,-217.896,11.047,113.525
-0.634,1.42,-0.552,-120.239,-5.432,60.974
-0.598,0.623,-0.06,-47.607,-26.001,63.721
-0.016,-0.005,0.199,-119.812,25.452,93.994
0.189,0.939,0.081,-55.664,-21.729,22.034
0.198,0.71,0.291,-26.428,-18.86,6.836
-0.003,0.61,0.096,-13.245,-33.936,-31.616
-0.033,0.614,0.204,-18.25,-13.733,-69.519
0.04,0.645,0.136,-7.935,2.991,-87.341
0.187,0.058,-0.151,7.385,-8.24,-149.109
0.243,-0.543,-0.178,-59.143,-20.569,-138.184
-0.247,-2.946,0.741,-211.487,38.208,-64.819
-1.344,-4.0,-1.353,-386.108,94.543,32.715
-4.0,3.703,1.059,121.338,-37.292,123.413
0.404,1.379,-0.085,55.786,44.495,-22.156
-4.0,-1.874,0.632,-71.533,167.297,535.828
-1.966,4.0,-0.646,58.533,62.012,95.825
-0.744,3.999,-0.415,226.501,-20.081,-5.127
-1.098,-0.548,-0.938,173.462,-168.213,-41.809
-2.828,-2.366,-1.013,57.556,-128.174,114.441
-2.327,-2.118,-1.229,70.74,-32.41,76.355
-0.97,0.388,-0.375,-226.746,123.596,-24.658
-1.66,0.983,-0.271,-218.262,94.299,-31.006
-1.672,0.768,-0.002,-175.354,93.811,-40.283
-0.855,-0.037,0.05,75.317,-60.425,-51.453
-0.615,0.085,-0.465,87.463,-12.817,8.057
-0.993,-0.42,-0.27,-2.38,-104.919,-127.075
-0.948,-0.181,-0.402,-39.551,-46.265,-116.15
-0.737,-0.367,-0.081,-37.109,37.781,-17.822
-0.612,-0.448,0.055,-23.865,43.823,-21.79
-0.51,-0.778,-0.122,-3.967,12.817,2.563
-0.688,-0.856,-0.124,-39.49,-1.526,20.935
-0.82,-0.835,-0.119,-51.208,4.089,26.855
-0.982,-0.247,-0.1,-46.997,33.02,34.485
-1.269,0.381,-0.199,-22.095,33.325,23.987
-1.069,0.315,-0.121,-4.272,35.461,15.015
-0.952,-0.395,0.147,-31.311,58.899,31.25
-0.97,-0.486,0.172,16.174,24.963,47.485
-1.0,-0.502,0.165,44.8,-11.78,51.636
-0.959,-0.078,0.053,89.417,-14.832,47.18
-0.882,0.035,-0.013,107.422,-1.892,35.828
-0.895,0.203,-0.05,139.282,-25.513,-20.874
-0.828,0.466,-0.139,41.809,32.593,-19.409
-0.829,0.397,-0.105,66.406,5.249,-39.062
-0.819,0.435,-0.188,62.5,-2.747,-47.302
-0.852,0.298,-0.404,69.641,-23.56,-83.984
-1.198,-0.019,-0.425,100.403,-44.128,-99.182
-1.253,-0.422,-0.402,80.261,-44.373,-94.299
-1.097,-0.633,-0.322,25.085,-30.151,-86.975
-1.311,-1.362,0.023,-134.46,4.15,-38.574
-1.119,-0.556,0.303,-121.704,22.888,5.493
-0.955,-0.086,0.364,-117.31,19.165,5.737
-0.674,0.206,-0.207,2.808,-15.442,10.071
-0.964,-0.373,-0.223,46.875,-19.775,36.438
-0.871,-0.133,-0.288,25.269,-18.127,34.485
-0.938,-0.201,-0.349,12.024,-15.991,32.043
-0.846,-0.471,-0.294,19.165,11.963,36.926
-0.873,-0.308,-0.397,-32.043,1.282,12.573
-0.825,-0.304,-0.322,-35.828,27.71,23.132
-0.838,-0.312,-0.194,-53.833,11.841,5.005
-0.839,-0.246,-0.179,-51.392,19.043,8.545
-1.018,0.079,-0.289,-26.672,29.48,20.386
-1.456,0.324,-0.245,-3.845,-21.606,-3.479
-1.297,0.228,-0.072,-1.648,-14.648,-4.761
-0.994,0.026,0.106,-8.972,19.165,12.451
-1.119,-0.226,0.025,3.296,16.663,4.7
-1.088,-0.072,0.043,11.169,-1.648,-29.236
-0.989,0.023,0.047,17.517,-7.08,-36.926
-0.841,0.012,-0.137,49.5,-20.325,-39.734
-0.875,-0.07,-0.199,50.781,-22.766,-37.17
-1.041,-0.187,-0.361,25.452,-23.376,-34.363
-0.865,-0.155,-0.395,-23.132,21.118,-24.902
-0.795,-0.135,-0.298,-31.555,33.02,-16.541
-0.812,-0.101,-0.119,-43.701,19.165,-4.7
-1.012,-0.02,0.012,-26.001,1.831,-10.132
-1.0,0.016,-0.049,10.62,5.249,-6.348
-0.981,-0.003,-0.069,20.996,2.38,-6.104
-0.975,-0.083,-0.172,31.433,2.197,2.441
-0.982,-0.085,-0.192,23.193,-9.277,-6.042
-0.915,-0.154,-0.166,-4.822,23.682,8.484
-0.921,-0.162,-0.13,-7.324,15.137,4.944
-0.977,-0.118,-0.064,-6.104,-1.953,-1.831
-1.016,-0.086,-0.076,-2.686,-2.625,-1.892
-0.952,-0.056,-0.044,3.113,0.0,-1.526
-0.964,-0.064,-0.017,5.493,1.831,3.601
-1.018,-0.047,-0.024,6.958,1.465,2.869
-0.96,-0.051,-0.051,13.672,0.977,1.648
-0.937,-0.152,-0.091,23.254,0.427,5.371
-0.957,-0.137,-0.108,22.522,-1.892,5.005
-0.963,-0.103,-0.147,22.888,-2.808,3.052
-0.955,-0.037,-0.19,21.545,-7.507,1.038
-0.972,-0.06,-0.192,18.066,-5.127,3.479
-0.998,-0.072,-0.168,15.747,-4.15,3.906
-1.041,-0.036,-0.173,2.258,-2.93,-0.854
-1.038,0.017,-0.117,-6.287,-0.732,-2.136
-1.059,0.091,-0.105,2.747,-4.15,-4.395
-1.062,0.081,-0.108,7.874,-4.395,-4.028
-1.053,0.05,-0.103,13.916,-4.517,-3.662
-0.996,0.032,-0.139,20.874,-3.54,-2.808
-0.992,0.022,-0.158,21.301,-3.601,-2.441
-0.994,-0.036,-0.188,18.127,-2.625,-1.892

-0.998,-0.45,-0.002,27.71,19.287,93.567
-1.0,-0.523,-0.02,26.489,19.409,83.984
-0.979,-0.563,-0.078,26.062,18.616,76.477
-0.99,-0.564,-0.115,22.095,19.592,72.327
-0.991,-0.492,-0.144,14.954,21.179,68.604
-0.964,-0.302,-0.269,8.24,18.86,47.607
-1.167,-0.383,-0.431,3.296,-0.977,32.104
-1.174,-0.343,-0.191,-11.475,-10.254,20.142
-1.165,-0.065,-0.103,-8.972,-12.634,-1.77
-1.438,-0.153,-0.081,2.991,-15.198,-14.771
-1.597,-0.219,0.117,20.081,0.061,-29.419
-1.981,0.509,-0.065,95.825,23.254,-167.603
-2.362,0.406,-0.909,190.613,-16.602,-223.145
-1.134,-0.939,-0.564,9.521,58.35,-198.425
-1.248,-4.0,0.211,-92.468,110.107,50.415
-0.827,-4.0,0.19,-73.853,119.202,147.156
-0.007,1.112,0.522,85.449,-85.327,16.968
-0.374,2.135,1.254,-216.064,47.302,105.103
-0.074,-0.002,-0.856,-102.478,-20.569,119.202
-0.026,0.428,0.114,-171.265,61.096,118.042
-0.017,0.794,-0.119,-113.403,26.367,75.806
0.181,0.675,-0.024,1.709,-10.498,3.235
0.254,0.522,-0.242,10.315,-61.279,-26.794
-0.077,-0.375,0.489,-93.262,6.653,-58.594
0.101,-0.483,0.532,-187.256,84.412,-78.552
0.293,-0.382,0.265,-153.564,46.021,-116.394
0.249,-0.103,0.055,-30.945,0.244,-114.868
0.12,-1.255,0.995,-146.667,13.489,-81.909
-4.0,2.857,1.123,77.82,-168.701,138.733
-0.349,0.245,-2.124,112.61,9.155,-15.564
-0.322,-4.0,-3.943,129.761,57.19,-41.138
-3.527,4.0,-1.098,-146.057,4.822,146.484
-1.965,-0.073,-1.094,297.607,-85.327,-100.098
-3.45,-1.009,-1.31,199.158,-32.227,-24.963
-0.895,-0.529,-0.569,-106.445,63.843,-61.768
-1.651,0.782,0.004,-66.833,-66.589,-59.814
-0.982,0.62,-0.305,-42.419,-9.338,-76.111
-0.44,0.375,-0.054,179.199,-218.689,-173.706
-1.169,0.431,-0.108,137.39,-238.342,-224.976
-1.302,0.145,-0.16,70.496,-2.319,-65.613
-0.819,-0.221,-0.101,-28.381,32.654,-50.232
-0.648,-0.042,-0.092,-35.95,24.17,-33.142
-0.661,0.003,-0.032,-9.338,-20.63,-66.284
-0.653,0.001,-0.243,34.302,-33.936,-81.421
-0.638,-0.319,-0.445,13.733,-21.667,-62.256
-0.815,-0.578,-0.362,-68.726,-6.042,-47.119
-0.974,-0.292,0.018,-121.521,2.441,-33.63
-1.014,-0.174,0.029,-113.831,3.296,-31.372
-1.142,0.038,0.089,-86.304,3.784,-33.447
-0.945,0.22,-0.024,22.034,-8.179,-41.626
-0.868,0.061,-0.394,37.72,-37.72,-56.946
-0.92,0.032,-0.451,27.771,-34.485,-53.528
-0.933,0.182,-0.13,-6.592,2.441,-26.428
-0.952,0.156,-0.087,3.113,12.695,-10.437
-0.947,0.166,-0.16,-8.667,9.644,-10.62
-0.942,0.164,-0.181,-11.414,5.859,-11.475
-0.943,0.161,-0.279,-4.028,1.709,-5.859
-0.97,0.12,-0.235,-6.47,3.54,2.197
-0.938,0.206,-0.128,-12.939,0.549,5.005
-0.946,0.227,-0.111,-11.841,1.526,5.615
-0.922,0.237,-0.162,0.854,1.221,5.798
-0.925,0.206,-0.224,5.981,-12.451,0.244
-0.937,0.242,-0.309,-2.075,-14.221,-2.38
-0.903,0.243,-0.28,9.888,17.456,10.803
-0.92,0.288,-0.239,5.737,-7.629,-4.7
-0.92,0.272,-0.169,12.268,-1.892,-5.127
-0.928,0.269,-0.177,19.836,-4.028,-5.798
-0.935,0.222,-0.228,19.958,-0.732,-1.16
-0.936,0.178,-0.245,17.7,0.244,0.0
-0.938,0.184,-0.222,14.038,-1.099,-0.244
-0.931,0.22,-0.208,12.146,-1.892,1.831
-0.933,0.216,-0.201,14.038,-1.16,1.282
-0.925,0.203,-0.213,13.611,-0.61,0.488
-0.925,0.186,-0.227,6.897,-1.099,-2.319
-0.927,0.182,-0.215,-3.174,0.793,-3.174
-0.935,0.206,-0.205,-4.639,1.038,-2.319
-0.935,0.252,-0.195,-1.343,-0.427,-1.648
-0.932,0.249,-0.186,-0.854,-0.366,-1.343
-0.929,0.224,-0.217,0.977,0.183,0.366
-0.927,0.219,-0.205,1.465,-0.061,0.61
-0.929,0.249,-0.209,1.648,-0.671,0.488
-0.913,0.255,-0.213,0.671,0.305,-0.244
-0.913,0.246,-0.209,0.366,0.671,-0.244
-0.93,0.228,-0.206,0.427,0.366,-0.366
-0.93,0.257,-0.197,-0.061,0.244,-0.549
-0.925,0.265,-0.192,-0.305,0.366,-0.671
-0.918,0.254,-0.193,0.549,1.099,-0.427
-0.918,0.246,-0.192,1.282,1.221,-0.549
-0.925,0.229,-0.201,2.747,0.549,-0.793
-0.926,0.227,-0.207,3.052,-0.488,-1.038
-0.928,0.243,-0.208,2.075,-0.732,-0.977
-0.923,0.24,-0.193,1.404,1.099,-0.671
-0.927,0.234,-0.196,1.587,0.732,-0.671
-0.926,0.235,-0.198,1.404,0.488,-0.793
-0.926,0.237,-0.203,0.488,0.671,-0.854
-0.926,0.24,-0.205,0.061,0.671,-1.038
-0.924,0.248,-0.203,-0.854,0.854,-1.16
-0.924,0.248,-0.196,-1.221,1.221,-1.16
-0.925,0.249,-0.198,-0.305,0.977,-0.793
-0.928,0.25,-0.199,0.244,0.488,-0.854
-0.922,0.249,-0.201,0.488,0.61,-0.732
-0.926,0.245,-0.199,-0.671,1.221,-0.793
-0.928,0.221,-0.2,-0.305,0.916,0.0
-0.918,0.247,-0.202,0.793,-0.061,0.427
-0.925,0.243,-0.196,-0.366,0.732,0.427
-0.926,0.239,-0.196,-0.488,1.038,0.366
-0.928,0.236,-0.197,-0.854,0.854,0.305
-0.927,0.235,-0.198,-1.465,0.916,0.366
-0.927,0.236,-0.203,-0.854,0.916,0.061
-0.929,0.232,-0.182,-2.014,0.0,-0.061
-0.924,0.234,-0.184,-1.404,0.549,-0.061
-0.924,0.237,-0.203,-0.183,0.61,-0.061
-0.927,0.235,-0.202,-0.427,0.305,-0.244
-0.926,0.236,-0.194,0.122,0.671,0.0
-0.927,0.238,-0.203,0.305,0.061,0.061
-0.926,0.241,-0.198,-0.061,0.305,0.061
-0.926,0.236,-0.2,0.305,0.488,0.244
-0.927,0.237,-0.201,0.732,0.0,0.061
-0.924,0.238,-0.198,0.488,0.244,0.366

-1.007,-0.981,-0.07,23.315,17.456,118.896
-1.205,-0.951,-0.051,28.503,19.287,114.38
-1.375,-0.835,-0.071,18.921,17.029,103.516
-1.41,-0.762,-0.18,3.052,16.968,88.44
-1.312,-0.614,-0.273,-14.465,19.714,69.397
-1.191,-0.465,-0.255,-27.1,21.912,50.049
-1.172,-0.087,-0.267,-4.761,14.954,17.639
-1.398,-0.057,-0.402,-0.549,26.917,10.437
-1.728,-0.196,0.14,3.113,-0.854,-43.884
-2.079,0.197,0.176,79.59,-4.883,-102.905
-2.367,0.309,-0.062,140.93,-2.136,-175.232
-2.346,0.329,-0.199,158.508,-5.066,-189.331
-1.944,-0.144,-0.793,166.382,-9.521,-185.242
-0.883,-1.002,-0.563,66.528,33.63,-140.259
-0.4,-0.996,-0.349,-36.438,89.783,-34.546
-0.726,-1.978,0.237,130.188,-30.151,178.223
0.05,0.112,-0.3,114.563,-52.185,26.489
0.191,0.96,0.554,-177.673,-40.344,60.364
-0.551,2.188,-0.731,-163.147,3.357,81.97
-0.462,0.348,-0.084,-90.942,-18.311,80.75
0.118,0.628,0.13,-129.639,74.158,118.164
0.155,0.854,0.328,-92.102,14.038,25.879
0.155,0.509,-0.039,-2.319,-22.278,-28.32
0.124,0.343,-0.153,14.587,-20.874,-75.989
-0.099,-0.567,0.116,-112.244,2.441,-90.881
-3.146,-1.14,-1.196,249.634,-126.038,167.358
-3.589,2.421,0.64,220.398,-126.099,139.832
-0.096,-0.222,-0.9,178.406,42.664,-34.18
-4.0,-4.0,2.307,-63.416,80.2,377.197
-3.158,2.685,-0.021,-87.891,72.876,184.631
-1.347,3.036,-0.498,88.501,0.244,-1.526
-1.016,0.959,-0.327,190.125,-87.219,-87.097
-1.86,-0.178,-0.936,109.192,-110.474,20.142
-1.359,-1.293,-0.78,-26.55,32.959,-44.495
-1.179,0.135,-0.285,-200.134,89.844,-22.888
-1.034,0.872,0.087,-64.514,20.508,-40.344
-0.876,0.324,-0.39,143.311,26.489,23.254
-1.143,-0.279,-0.025,152.222,20.02,18.86
-0.916,-0.468,-0.414,61.646,-31.006,-93.933
-0.743,-0.343,-0.395,-10.01,-13.855,-78.125
-0.742,-0.285,-0.322,-41.809,-9.216,-70.557
-0.717,-0.097,-0.092,-99.121,68.054,-20.813
-0.67,-0.178,-0.132,-85.388,21.24,-45.349
-0.637,-0.249,-0.186,-82.52,-6.409,-61.279
-0.822,-0.209,-0.19,-78.186,3.418,-51.941
-0.925,-0.177,-0.168,-67.81,-5.127,-36.133
-0.943,-0.189,-0.135,-58.838,-7.507,-31.006
-0.978,-0.13,0.017,-31.311,-7.69,-20.264
-0.957,0.067,0.0,-2.136,-11.475,-23.254
-0.964,0.097,-0.028,9.827,-15.93,-27.1
-0.979,0.091,-0.297,40.649,-17.151,-38.025
-0.914,-0.01,-0.36,36.255,-19.775,-41.077
-0.906,0.045,-0.262,-1.892,-12.146,-52.002
-0.897,0.166,-0.147,-14.832,-5.92,-52.917
-0.96,0.167,-0.091,-27.527,-6.226,-54.932
-0.921,0.03,-0.073,-17.883,24.048,-33.691
-0.924,0.049,-0.157,-15.015,9.766,-26.184
-0.953,0.128,-0.198,-12.939,10.559,-22.4
-0.952,0.177,-0.258,-8.118,1.587,-22.522
-0.924,0.198,-0.18,2.197,-1.16,-22.4
-0.942,0.157,-0.188,5.615,2.319,-18.799
-0.964,0.126,-0.204,-0.549,3.418,-15.808
-0.917,0.134,-0.182,9.094,1.282,-10.803
-0.953,0.146,-0.188,9.46,-10.315,-16.663
-0.93,0.199,-0.212,17.883,10.071,0.854
-0.94,0.202,-0.193,16.785,-7.385,-6.836
-0.953,0.197,-0.215,11.292,-2.441,-2.869
-0.94,0.214,-0.159,9.399,4.272,4.822
-0.944,0.262,-0.155,13.306,-2.38,0.61
-0.936,0.263,-0.166,15.93,-4.089,-0.122
-0.91,0.257,-0.206,13.672,-3.54,0.671
-0.911,0.255,-0.225,9.094,-0.671,0.732
-0.913,0.26,-0.221,5.371,0.0,-1.221
-0.912,0.257,-0.206,2.991,-0.244,-1.892
-0.921,0.261,-0.188,-0.488,1.038,-2.075
-0.929,0.271,-0.183,-1.892,1.77,-1.099
-0.937,0.243,-0.18,0.0,1.221,-0.244
-0.933,0.241,-0.18,1.587,0.366,0.183
-0.93,0.246,-0.193,4.639,-0.977,1.465
-0.928,0.244,-0.199,5.249,-0.793,2.075
-0.93,0.24,-0.205,4.456,-0.366,2.869
-0.934,0.231,-0.2,2.502,-0.305,3.235
-0.927,0.242,-0.181,0.61,-0.793,2.991
-0.925,0.267,-0.174,1.648,-1.892,2.258
-0.923,0.267,-0.174,2.258,-2.075,2.258
-0.92,0.262,-0.195,3.418,-1.465,2.686
-0.925,0.261,-0.199,2.686,-1.343,2.014
-0.921,0.243,-0.2,1.953,-0.671,1.892
-0.92,0.241,-0.199,0.977,-0.671,2.014
-0.926,0.232,-0.196,-0.183,-0.122,1.526
-0.927,0.231,-0.195,-0.549,0.244,1.404
-0.929,0.231,-0.194,-0.183,0.122,0.793
-0.925,0.231,-0.195,0.0,-0.427,0.061
-0.926,0.215,-0.204,-0.793,-0.305,0.854
-0.932,0.218,-0.205,0.0,0.122,1.221
-0.931,0.221,-0.207,0.305,0.183,0.916
-0.925,0.232,-0.209,1.038,-0.427,0.0
-0.924,0.231,-0.209,1.16,-0.305,-0.427
-0.929,0.213,-0.206,0.916,0.183,-0.183
-0.934,0.21,-0.207,1.16,0.305,-0.183
-0.937,0.206,-0.209,1.892,-0.427,-0.427
-0.93,0.209,-0.206,1.526,-0.366,-0.244
-0.928,0.226,-0.2,0.916,0.061,0.122
-0.927,0.231,-0.199,0.732,0.244,0.183
-0.926,0.233,-0.203,1.465,0.183,0.244
-0.928,0.232,-0.198,1.465,0.427,-0.122
-0.926,0.233,-0.205,0.854,0.244,-0.488
-0.927,0.232,-0.204,0.854,0.366,-0.427
-0.927,0.232,-0.198,0.793,1.221,-0.061
-0.929,0.236,-0.195,0.793,0.793,-0.061
-0.927,0.234,-0.197,1.465,0.183,-0.305
-0.926,0.238,-0.203,1.099,0.183,-0.671
-0.926,0.24,-0.202,0.427,0.732,-0.427
-0.925,0.24,-0.199,-0.366,1.16,-0.122
-0.927,0.234,-0.198,-0.061,1.343,0.0
-0.928,0.232,-0.195,0.183,1.221,0.183
-0.924,0.235,-0.195,0.305,0.793,-0.183
-0.927,0.235,-0.195,0.122,0.244,-0.732
-0.928,0.234,-0.195,0.183,0.122,-0.916

-0.926,-0.48,-0.189,-30.212,10.62,76.355
-0.902,-0.475,-0.149,-29.358,15.747,87.646
-0.861,-0.537,-0.077,-36.316,20.447,96.619
-0.817,-0.578,-0.029,-40.71,26.123,106.506
-0.767,-0.473,-0.064,-43.274,32.959,118.835
-0.715,-0.351,-0.088,-61.218,54.688,151.123
-0.773,-0.091,-0.13,-68.115,49.805,159.546
-0.905,0.927,0.173,-35.339,57.495,158.325
-0.251,0.529,-0.214,91.736,36.194,123.108
-0.18,0.018,-0.235,74.951,36.804,120.667
-0.893,-0.931,-0.407,12.634,1.099,132.874
-1.784,-0.572,-0.296,5.676,16.235,112.671
-1.463,-0.822,-0.168,-5.31,2.441,63.599
-1.229,-0.172,-0.303,-21.79,1.282,6.165
-1.695,-0.085,-0.397,-1.648,-9.766,-11.536
-1.821,-0.152,-0.082,-18.799,21.729,-27.893
-1.997,0.2,0.284,-4.578,13.0,-59.814
-2.134,0.491,0.278,72.144,6.714,-107.91
-2.346,-0.054,-0.754,213.257,-42.908,-179.749
-1.784,-0.473,-1.004,185.059,-15.076,-181.03
-1.436,-0.609,-1.011,130.432,30.151,-163.94
-0.274,-1.715,-0.516,-33.936,49.133,-112.183
0.51,-4.0,-1.042,-52.124,2.563,125.977
-0.029,0.154,-0.127,124.451,-52.795,40.1
0.37,2.432,0.779,-178.467,7.874,23.56
-0.664,0.631,-0.677,-84.961,33.447,84.473
-0.531,-0.018,0.027,-57.739,20.203,97.351
0.185,0.847,0.099,-46.631,0.427,24.597
-0.002,0.199,-0.107,17.395,-22.949,-41.748
0.019,-0.368,0.125,-13.611,-12.817,-65.674
0.178,-0.741,-0.157,-118.225,18.311,-91.309
-0.136,-0.533,0.019,-178.162,18.188,-34.973
-2.972,-0.747,-1.064,69.214,17.761,100.647
-3.267,2.749,0.587,171.082,-87.402,124.817
-2.666,-4.0,-4.0,54.016,-38.696,-68.604
-3.207,3.999,-0.517,57.007,41.016,59.875
-0.199,1.923,0.061,245.789,3.296,-74.951
-1.019,0.925,-0.168,193.359,-74.036,-104.309
-2.373,-1.539,-0.825,68.115,-103.699,70.801
-1.657,-1.384,-0.709,24.719,-18.921,-48.401
-1.182,-0.324,-0.205,-155.273,39.856,-72.815
-1.671,0.98,-0.015,-173.279,53.65,-42.114
-1.068,1.021,0.08,-56.763,13.733,-55.847
-0.561,0.029,0.046,99.487,-29.053,-48.523
-1.2,0.038,-0.508,100.891,-18.25,-40.405
-1.032,-0.467,-0.35,67.505,23.804,-27.954
-0.722,-0.182,-0.276,-23.865,6.775,-62.317
-0.804,0.046,-0.271,-43.701,9.277,-51.758
-0.662,-0.139,-0.286,-43.64,-14.893,-78.857
-0.686,-0.229,-0.228,-64.087,5.859,-68.97
-0.805,-0.228,-0.114,-72.51,12.085,-57.129
-0.93,-0.15,-0.083,-72.876,-8.972,-59.509
-0.926,0.037,0.002,33.02,-14.282,-52.124
-0.916,-0.051,-0.25,61.768,-23.315,-51.086
-0.922,-0.105,-0.357,47.729,-22.888,-47.18
-0.949,-0.06,-0.456,10.01,-19.897,-40.039
-0.953,0.071,-0.372,-3.723,-14.465,-35.034
-0.936,0.159,-0.254,-15.869,-3.54,-28.687
-0.924,0.279,-0.175,-21.301,4.089,-26.611
-0.909,0.255,-0.178,-11.658,10.315,-19.287
-0.944,0.21,-0.17,-10.376,7.019,-17.334
-0.948,0.185,-0.191,-7.69,5.676,-14.771
-0.938,0.168,-0.242,-2.808,1.343,-8.789
-0.936,0.159,-0.288,-5.249,2.014,-9.46
-0.94,0.177,-0.298,-7.202,2.014,-10.01
-0.936,0.217,-0.197,-13.855,6.592,-1.404
-0.924,0.242,-0.174,-7.08,3.967,-0.549
-0.917,0.253,-0.175,-2.991,2.197,-0.305
-0.912,0.272,-0.212,7.996,-3.052,-1.77
-0.886,0.27,-0.274,10.559,-2.991,-3.601
-0.886,0.282,-0.288,2.869,-1.282,-4.7
-0.888,0.29,-0.275,-1.404,0.122,-5.188
-0.895,0.315,-0.235,-7.202,1.709,-7.141
-0.902,0.319,-0.208,-6.714,1.343,-7.019
-0.917,0.295,-0.195,-1.343,1.038,-5.432
-0.916,0.268,-0.224,4.883,0.488,-2.502
-0.919,0.257,-0.234,6.47,0.366,-1.526
-0.93,0.239,-0.247,8.789,-0.183,-0.183
-0.927,0.245,-0.234,8.545,-0.854,1.16
-0.918,0.251,-0.226,8.118,-0.061,2.93
-0.913,0.254,-0.229,7.446,0.122,3.418
-0.914,0.283,-0.229,5.981,-0.122,3.052
-0.907,0.292,-0.223,5.371,-0.061,2.38
-0.898,0.294,-0.228,4.15,0.427,2.258
-0.898,0.287,-0.235,3.845,0.732,2.319
-0.911,0.267,-0.242,1.587,0.977,2.258
-0.912,0.268,-0.238,1.038,1.587,2.258
-0.909,0.277,-0.222,1.099,1.099,2.197
-0.908,0.268,-0.214,3.662,0.061,2.563
-0.913,0.259,-0.212,4.883,-0.244,2.625
-0.92,0.254,-0.225,6.592,-1.526,2.319
-0.918,0.255,-0.225,6.348,-1.526,2.014
-0.912,0.256,-0.24,2.991,-0.61,2.258
-0.911,0.265,-0.23,0.61,0.916,1.953
-0.916,0.258,-0.226,-0.061,1.343,1.892
-0.917,0.26,-0.222,-0.122,1.221,1.709
-0.915,0.259,-0.217,0.122,1.16,1.709
-0.914,0.26,-0.217,0.549,0.732,1.587
-0.911,0.268,-0.219,1.16,0.488,1.282
-0.908,0.272,-0.222,1.404,0.671,1.16
-0.915,0.268,-0.223,1.221,0.671,1.099
-0.91,0.266,-0.221,0.977,0.732,1.16
-0.91,0.264,-0.22,0.916,0.671,1.343
-0.914,0.26,-0.219,0.793,1.099,1.221
-0.917,0.261,-0.219,1.038,0.732,0.488
-0.915,0.262,-0.219,0.916,0.061,0.122
-0.918,0.253,-0.225,1.282,0.183,0.488
-0.919,0.246,-0.226,1.16,0.305,0.671
-0.918,0.247,-0.218,0.61,0.427,0.977
-0.917,0.249,-0.218,0.61,0.61,0.854
-0.918,0.253,-0.216,0.916,0.427,0.61
-0.918,0.255,-0.218,0.793,0.488,0.488
-0.914,0.251,-0.225,0.732,0.427,0.671
-0.916,0.255,-0.227,-0.183,1.282,0.854
-0.912,0.256,-0.23,-0.366,1.038,0.549
-0.916,0.256,-0.228,-0.732,0.854,0.488
-0.917,0.253,-0.218,-0.671,0.427,0.0
-0.918,0.25,-0.219,-0.488,0.549,0.061
-0.919,0.25,-0.219,-0.122,0.61,0.305

-0.899,0.544,0.355,-113.892,102.051,153.992
-0.556,0.533,0.28,-77.759,127.869,150.818
-0.534,0.309,0.141,-3.967,64.88,127.441
-0.561,0.19,0.057,57.556,30.212,111.45
-0.52,0.026,0.001,57.373,33.569,103.638
-0.521,-0.151,-0.269,43.274,37.964,97.656
-1.246,-0.791,-0.272,54.688,-0.061,78.064
-1.01,-0.62,-0.392,15.686,7.751,30.701
-1.191,-0.486,-0.354,1.343,13.184,25.024
-1.79,-0.202,-0.362,-9.094,-0.305,-6.531
-1.878,0.009,-0.156,-7.08,6.104,-53.101
-1.904,0.344,0.247,-4.517,41.809,-90.332
-2.114,0.51,0.026,98.389,-1.404,-117.615
-2.292,0.603,-0.134,122.925,-13.794,-133.24
-2.192,0.109,-0.932,203.125,-46.509,-209.717
-1.685,-0.276,-1.084,137.329,1.831,-177.795
-0.613,-1.826,-0.038,-68.542,81.787,-112.183
-0.018,-4.0,-0.847,-115.295,48.95,143.677
0.449,0.762,0.651,69.275,-51.086,49.5
0.27,2.151,1.154,-11.597,-28.137,53.284
-0.681,2.11,-0.887,-144.897,-4.883,66.833
-0.47,0.126,-0.442,-122.253,71.777,123.901
0.231,0.67,0.067,-105.53,31.189,42.114
0.277,0.715,0.177,-82.947,9.644,-1.892
0.19,0.653,0.182,-54.382,-16.785,-23.01
-0.01,0.439,0.158,-35.645,-5.859,-37.476
0.0,0.304,0.154,-7.812,-4.7,-112.854
0.136,-0.008,0.158,-2.563,-2.258,-124.939
0.344,-0.677,-0.404,26.611,-3.601,-122.559
-0.175,-2.225,1.358,-147.522,5.127,-37.72
-3.317,-0.789,-1.66,-25.269,-59.143,132.629
-3.996,0.351,-0.728,105.469,5.005,83.557
-1.846,-3.597,-3.051,38.269,-75.439,6.714
-2.809,1.129,0.249,-19.897,125.977,223.999
-0.39,2.702,-0.108,76.355,14.221,-21.057
-1.76,0.333,-0.701,108.398,-117.065,-8.301
-1.976,-1.703,-0.829,103.699,-6.409,-9.583
-1.111,-0.312,-0.581,-74.341,7.019,-84.839
-1.323,0.43,-0.291,-150.146,56.274,-33.447
-1.117,0.617,-0.012,-28.259,43.579,-1.221
-1.144,0.049,-0.117,55.542,4.089,7.568
-1.181,-0.106,-0.122,83.435,-23.56,-17.822
-0.808,-0.046,-0.485,125.244,64.636,48.096
-1.051,-0.46,-0.343,-13.55,-44.128,-90.698
-0.922,0.078,-0.113,-57.983,15.564,-51.575
-0.908,0.133,-0.07,-60.547,18.982,-44.434
-0.971,0.072,-0.08,-49.866,20.935,-51.025
-0.765,-0.08,-0.136,-20.691,36.682,-43.152
-0.77,-0.211,-0.333,-8.362,1.77,-60.364
-0.784,-0.317,-0.401,-25.513,2.319,-57.922
-0.755,-0.267,-0.295,-40.833,3.662,-46.875
-0.802,-0.168,-0.179,-44.8,-4.211,-44.739
-0.806,-0.1,-0.121,-37.292,-13.611,-47.913
-0.865,-0.087,-0.019,-24.78,-17.212,-53.101
-0.896,-0.06,-0.009,-10.376,-16.785,-55.725
-0.918,-0.034,-0.033,13.062,-21.423,-55.176
-0.897,-0.043,-0.092,19.043,-22.339,-52.49
-0.896,-0.098,-0.17,22.156,-20.02,-49.194
-0.923,-0.068,-0.256,14.526,-13.184,-45.349
-0.926,-0.028,-0.25,8.118,-8.179,-41.565
-0.953,-0.027,-0.255,-8.85,0.793,-34.241
-0.94,0.007,-0.274,-20.386,4.944,-32.227
-0.926,0.106,-0.218,-35.645,12.695,-30.334
-0.958,0.074,-0.146,-40.894,16.174,-28.748
-1.002,0.037,-0.151,-22.827,6.348,-20.081
-1.015,0.051,-0.225,-9.033,1.282,-9.094
-0.95,0.018,-0.172,3.723,1.892,-5.432
-1.008,0.065,-0.244,1.221,12.817,5.188
-0.966,0.119,-0.174,8.484,9.583,7.385
-0.956,0.13,-0.182,14.404,-1.16,4.517
-0.948,0.121,-0.177,18.921,-0.183,3.662
-0.932,0.187,-0.187,22.827,-1.343,1.343
-0.923,0.232,-0.19,20.081,-6.531,-4.761
-0.932,0.277,-0.207,15.137,-4.822,-6.897
-0.936,0.259,-0.213,12.695,-2.563,-6.531
-0.927,0.232,-0.182,6.775,1.892,-2.197
-0.926,0.246,-0.174,8.667,2.686,-1.587
-0.938,0.232,-0.161,8.728,2.014,-1.404
-0.939,0.234,-0.167,14.404,0.732,1.709
-0.936,0.196,-0.167,21.179,0.0,5.127
-0.935,0.191,-0.172,21.973,-0.427,5.066
-0.936,0.181,-0.175,20.203,-0.977,0.977
-0.942,0.16,-0.185,16.663,-0.793,-0.183
-0.946,0.156,-0.192,13.794,-0.366,-0.549
-0.948,0.153,-0.2,3.967,0.488,-1.282
-0.954,0.153,-0.202,1.404,0.671,-1.343
-0.96,0.168,-0.183,-2.747,0.793,-1.343
-0.959,0.17,-0.171,-3.784,1.343,-1.16
-0.961,0.156,-0.163,-4.578,1.709,0.671
-0.956,0.159,-0.165,-2.441,0.732,1.099
-0.953,0.161,-0.164,-1.526,0.122,1.038
-0.938,0.187,-0.186,0.122,-1.221,0.427
-0.938,0.193,-0.188,-0.366,-1.404,0.305
-0.934,0.214,-0.205,-2.808,-0.366,0.122
-0.929,0.221,-0.207,-3.54,-0.122,0.0
-0.927,0.227,-0.197,-5.981,1.16,-0.366
-0.938,0.203,-0.166,-7.324,2.808,-0.244
-0.943,0.197,-0.168,-5.249,1.221,-0.671
-0.95,0.198,-0.172,-2.991,0.732,-0.854
-0.946,0.195,-0.179,-0.305,-0.061,-0.488
-0.94,0.202,-0.191,2.075,0.061,0.549
-0.94,0.198,-0.189,2.686,0.183,1.343
-0.94,0.196,-0.187,2.502,0.671,1.282
-0.938,0.193,-0.174,2.747,0.488,1.221
-0.942,0.193,-0.172,2.747,0.122,0.671
-0.946,0.188,-0.179,1.77,0.244,0.427
-0.946,0.184,-0.18,1.404,0.305,0.488
-0.944,0.178,-0.175,1.16,0.549,0.671
-0.945,0.175,-0.175,1.16,0.366,0.793
-0.945,0.176,-0.18,0.977,0.427,0.793
-0.944,0.178,-0.18,0.427,0.427,0.671
-0.944,0.181,-0.182,-0.244,0.366,0.854
-0.944,0.185,-0.182,-0.916,0.244,0.488
-0.945,0.188,-0.182,-1.038,0.366,0.244
-0.942,0.189,-0.18,-0.977,0.244,0.244
-0.941,0.188,-0.177,-1.038,0.122,0.305
-0.944,0.184,-0.178,-0.916,0.122,0.61
-0.946,0.184,-0.18,-0.793,0.061,0.488
-0.944,0.188,-0.18,-0.122,-0.549,0.549

-0.906,-0.377,-0.325,18.738,11.047,93.018
-1.031,-0.452,-0.308,22.888,3.845,83.374
-1.146,-0.441,-0.38,30.212,-3.54,74.951
-1.275,-0.477,-0.44,32.593,-11.414,63.782
-1.42,-0.529,-0.459,33.203,-20.081,50.232
-1.538,-0.538,-0.475,27.954,-25.757,36.621
-1.543,-0.497,-0.412,1.282,-22.644,10.925
-1.729,-0.323,-0.074,-40.1,-3.784,-15.137
-2.093,0.323,0.102,94.788,-4.944,-114.624
-2.115,0.289,-0.089,125.732,7.812,-138.428
-1.711,0.12,-0.678,177.917,4.761,-163.696
-1.345,-0.329,-0.972,190.613,-0.427,-147.095
-0.766,-1.087,-0.434,141.479,19.836,-104.004
-0.292,-1.528,-0.273,48.157,78.369,-41.931
0.062,-4.0,-0.714,13.0,2.563,126.221
-0.602,-1.036,-0.194,26.794,-68.054,139.404
0.031,1.368,0.23,-45.837,-14.282,63.232
-0.351,0.879,0.382,-68.848,53.955,96.375
-0.022,0.488,0.233,-98.755,23.743,67.322
0.074,0.822,0.041,-12.207,-2.197,20.02
0.029,0.519,-0.017,26.367,-24.475,-40.466
0.077,0.284,-0.012,10.437,-31.677,-81.116
0.269,-0.431,-0.088,-40.71,21.484,-136.536
0.117,-1.631,0.888,-116.455,31.738,-126.16
-4.0,-4.0,2.533,-90.027,-79.102,146.179
-3.43,0.501,-0.104,-81.238,69.824,247.742
-0.45,1.428,-0.115,220.459,-31.433,-39.917
-0.448,1.0,-0.072,223.389,-71.228,-85.51
-1.617,0.003,-0.69,125.732,-127.625,-28.992
-1.465,-0.856,-0.621,26.367,44.861,-15.869
-1.145,-0.677,-0.611,-33.752,22.339,-74.158
-1.289,-0.295,-0.441,-140.564,39.368,-56.824
-1.087,0.644,0.078,-36.926,33.508,-26.428
-1.025,0.538,0.107,-1.465,23.499,-20.081
-0.771,-0.184,-0.355,62.012,-15.32,-34.79
-1.085,0.235,-0.345,84.351,74.463,-6.287
-1.025,-0.237,-0.442,68.604,-56.58,-109.924
-0.814,0.057,-0.351,-4.15,5.249,-74.097
-0.555,-0.024,-0.31,-46.509,13.977,-81.055
-0.843,-0.02,-0.019,-90.759,12.085,-54.199
-1.047,-0.101,0.064,16.052,-11.841,-59.204
-0.979,-0.177,-0.119,46.326,-23.254,-62.683
-0.958,-0.198,-0.433,28.076,-20.935,-54.565
-0.953,-0.079,-0.5,-4.272,-17.883,-53.467
-0.92,0.104,-0.234,-20.874,-8.545,-45.593
-0.944,0.128,-0.156,-20.508,-4.883,-39.368
-1.016,0.152,-0.119,-4.395,-0.854,-19.592
-0.983,0.132,-0.138,14.648,-1.099,-2.441
-0.957,0.138,-0.171,18.86,-0.244,5.371
-0.942,0.185,-0.209,17.212,-0.061,10.681
-0.912,0.172,-0.274,5.31,9.033,15.381
-0.928,0.132,-0.259,-7.263,11.169,13.0
-0.945,0.148,-0.199,-26.184,8.179,4.883
-0.947,0.169,-0.179,-30.457,7.202,2.563
-0.94,0.221,-0.161,-28.381,7.202,-0.549
-0.929,0.253,-0.171,-24.414,7.324,-0.122
-0.928,0.27,-0.184,-16.296,7.751,0.732
-0.93,0.195,-0.196,-0.244,6.897,6.165
-0.934,0.165,-0.19,2.991,5.737,7.385
-0.944,0.181,-0.18,6.775,0.61,6.47
-0.945,0.216,-0.187,7.446,-1.526,4.333
-0.941,0.253,-0.189,4.211,0.305,2.319
-0.935,0.259,-0.189,4.028,1.587,1.77
-0.917,0.271,-0.181,7.996,0.366,-0.427
-0.911,0.254,-0.166,13.428,0.732,-0.183
-0.917,0.243,-0.162,14.893,0.61,0.0
-0.928,0.222,-0.172,17.761,0.427,0.427
-0.945,0.196,-0.172,17.151,0.061,0.122
-0.956,0.171,-0.172,11.108,0.427,0.366
-0.953,0.168,-0.179,9.766,0.61,0.61
-0.947,0.168,-0.186,7.141,1.038,1.282
-0.945,0.168,-0.183,6.287,1.465,1.648
-0.945,0.19,-0.182,3.479,1.892,3.235
-0.945,0.205,-0.174,2.502,1.16,3.601
-0.944,0.207,-0.162,1.282,1.16,3.54
-0.938,0.206,-0.151,1.404,1.831,3.906
-0.941,0.203,-0.152,1.648,2.258,4.028
-0.942,0.181,-0.164,2.075,2.258,3.479
-0.942,0.183,-0.166,1.77,1.404,2.747
-0.938,0.199,-0.166,-0.061,-0.488,0.061
-0.941,0.21,-0.156,-1.404,-0.671,0.977
-0.942,0.214,-0.156,-1.587,-0.916,0.61
-0.944,0.213,-0.155,-1.221,-0.916,0.549
-0.943,0.209,-0.169,-0.549,-0.549,-0.244
-0.938,0.195,-0.177,-2.441,0.061,-0.916
-0.942,0.198,-0.18,-5.493,0.977,-1.038
-0.946,0.198,-0.179,-6.165,1.099,-1.038
-0.945,0.197,-0.17,-6.714,1.282,-1.16
-0.942,0.187,-0.163,-4.944,0.61,-0.977
-0.947,0.176,-0.177,-1.831,-0.366,-0.916
-0.941,0.185,-0.188,-1.282,-0.977,-0.854
-0.942,0.185,-0.185,-1.526,-0.916,-0.732
-0.946,0.183,-0.176,-1.587,-0.244,-0.183
-0.942,0.19,-0.176,-1.343,-0.732,-0.427
-0.937,0.204,-0.177,-0.122,-0.977,-0.671
-0.942,0.193,-0.179,0.549,-0.61,-0.122
-0.946,0.192,-0.184,1.099,-0.854,0.305
-0.942,0.193,-0.177,0.977,-0.977,0.0
-0.938,0.186,-0.182,1.038,-0.244,0.305
-0.942,0.195,-0.185,1.221,-1.099,-0.305
-0.939,0.196,-0.186,1.465,-1.16,-0.183
-0.937,0.193,-0.183,0.977,-0.732,-0.122
-0.935,0.193,-0.185,0.793,-0.732,-0.366
-0.937,0.195,-0.188,0.793,-0.793,-0.488
-0.939,0.194,-0.186,0.549,-0.549,-0.61
-0.939,0.194,-0.187,0.549,-0.732,-0.854
-0.94,0.197,-0.157,0.183,-1.099,-1.221
-0.94,0.194,-0.191,-0.793,-0.854,-1.16
-0.939,0.196,-0.192,-1.221,-0.61,-1.221
-0.939,0.199,-0.19,-1.709,-0.732,-1.343
-0.939,0.2,-0.189,-1.953,-0.854,-1.343
-0.942,0.197,-0.188,-2.441,-0.549,-1.282
-0.94,0.202,-0.193,-1.648,-0.732,-1.221
-0.938,0.198,-0.192,-1.892,-0.488,-1.221
-0.938,0.19,-0.193,-2.014,-0.488,-0.977
-0.937,0.191,-0.197,-1.587,-0.488,-0.854
-0.943,0.202,-0.197,-1.709,-0.671,-1.038
-0.937,0.202,-0.193,-1.343,-0.549,-1.099
-0.935,0.201,-0.193,-1.282,-0.305,-0.977

-0.998,-0.527,-0.045,-130.005,52.307,150.085
-1.076,-0.453,-0.071,-120.972,62.134,164.612
-1.126,-0.253,0.079,-85.449,60.303,175.476
-1.056,0.308,0.119,-40.71,59.814,177.734
-1.148,0.785,0.134,-55.176,62.5,161.804
-0.682,1.165,0.097,-59.753,98.389,150.635
-0.237,0.92,0.043,50.537,6.653,90.332
-1.054,-1.109,-0.533,41.443,-27.283,27.954
-3.17,-2.307,0.317,-47.302,-34.546,106.934
-1.17,0.46,-0.492,13.123,5.676,-18.311
-1.627,0.599,-0.468,39.917,-19.714,-39.917
-1.93,0.204,-0.27,61.951,-8.545,-40.344
-2.101,-0.121,-0.083,40.955,7.507,-41.26
-2.31,-0.16,0.075,16.663,1.892,-77.576
-2.243,0.533,-0.506,149.475,-41.016,-192.444
-2.127,-0.413,-0.856,144.958,-54.138,-205.933
-1.321,-0.589,-0.619,81.482,21.423,-172.729
-0.326,-3.348,-0.728,-95.154,66.65,-100.464
-0.623,-2.849,-0.769,-5.371,0.732,147.827
-0.586,-1.302,-0.137,73.547,-60.913,101.746
-0.058,0.637,0.151,135.01,-29.663,102.417
-0.204,1.483,0.129,-143.555,19.592,100.464
-0.35,0.974,-0.657,-75.5,23.438,118.896
-0.014,0.138,-0.177,-100.586,44.678,133.057
0.006,0.723,-0.012,-59.631,12.756,32.41
-0.093,0.706,0.007,-29.663,5.615,6.104
0.114,0.408,-0.091,-22.583,-12.329,-77.881
0.2,-0.169,0.046,-45.959,-14.221,-110.901
0.444,-1.104,0.244,-118.042,45.105,-100.708
0.357,-0.836,-0.095,-145.142,57.556,-86.121
-0.057,-3.191,0.653,-268.616,67.688,-47.424
-2.548,1.039,-0.433,312.073,-109.192,135.254
-0.4,-0.966,-0.809,188.354,9.338,22.278
-4.0,-4.0,2.057,-87.036,-58.899,301.88
-3.193,3.216,0.085,-179.382,86.182,144.531
-0.591,0.619,0.013,244.507,-55.176,-45.532
-2.547,-0.978,-0.912,118.164,-76.355,23.865
-1.7,-1.548,-0.755,99.792,-17.822,-15.381
-1.097,0.122,-0.454,-91.675,-9.644,-97.29
-1.412,0.758,-0.219,-61.951,17.029,-72.449
-1.045,0.392,-0.114,9.583,39.917,-12.268
-0.531,0.321,-0.182,3.235,16.418,-8.972
-0.893,-0.424,0.161,32.532,58.35,3.479
-1.123,-0.253,-0.191,52.246,-98.511,-119.995
-1.037,-0.151,-0.23,59.631,-6.409,-61.401
-0.865,0.058,-0.121,4.883,5.92,-45.532
-0.788,0.13,-0.118,3.235,26.245,-34.302
-0.684,0.003,-0.254,8.118,23.499,-44.373
-0.877,-0.117,-0.177,-39.246,6.958,-38.391
-0.975,-0.129,-0.001,-26.306,-5.188,-35.828
-1.017,-0.172,-0.011,-11.292,-13.55,-38.818
-0.943,-0.065,0.039,14.465,-14.282,-34.79
-0.967,0.031,-0.073,33.325,-22.278,-34.79
-0.932,0.07,-0.21,31.372,-23.56,-39.612
-0.917,0.105,-0.251,20.935,-23.193,-35.889
-0.9,0.095,-0.21,4.883,-8.728,-27.1
-0.917,0.053,-0.195,-3.052,3.113,-17.456
-1.021,-0.081,-0.12,-21.667,12.024,-1.038
-0.991,0.081,-0.173,-17.395,1.16,-0.183
-0.974,0.107,-0.181,-15.686,0.183,0.183
-0.95,0.153,-0.177,-11.475,0.793,3.906
-0.963,0.191,-0.134,-7.996,2.258,4.395
-0.96,0.126,-0.129,-5.92,3.296,3.723
-0.954,0.097,-0.146,-8.118,4.883,2.319
-0.945,0.096,-0.164,-9.644,4.883,1.526
-0.961,0.139,-0.193,-15.137,6.897,13.611
-0.957,0.155,-0.131,-4.333,1.465,-0.061
-0.961,0.144,-0.141,5.249,-5.066,-1.404
-0.955,0.138,-0.146,9.888,-4.089,-1.709
-0.963,0.126,-0.154,21.606,-9.033,-2.869
-0.953,0.144,-0.204,12.817,-5.737,-5.188
-0.958,0.148,-0.197,8.789,-3.418,-5.066
-0.949,0.141,-0.159,-1.953,-0.244,-6.287
-0.947,0.146,-0.151,-4.028,0.305,-5.798
-0.951,0.154,-0.152,-3.662,1.038,-4.456
-0.958,0.128,-0.175,1.038,-0.549,-2.197
-0.951,0.112,-0.189,0.427,0.0,-0.671
-0.947,0.105,-0.186,-0.122,0.793,0.305
-0.953,0.107,-0.188,-1.526,0.488,0.244
-0.957,0.138,-0.18,-2.747,-0.916,-0.854
-0.946,0.145,-0.182,-3.662,-1.465,-1.282
-0.952,0.147,-0.177,-4.456,-1.099,-1.77
-0.951,0.138,-0.184,-4.089,-1.282,-2.136
-0.952,0.146,-0.177,-5.31,0.244,-0.732
-0.953,0.159,-0.191,0.732,-2.136,-0.061
-0.95,0.176,-0.19,1.221,-0.305,-0.671
-0.95,0.154,-0.187,2.075,-0.061,-1.709
-0.952,0.146,-0.199,1.892,0.061,-1.587
-0.95,0.143,-0.197,1.099,0.061,-1.465
-0.95,0.143,-0.197,0.305,-0.061,-1.343
-0.952,0.135,-0.195,0.122,-0.122,-0.916
-0.951,0.14,-0.194,0.305,-0.061,-0.671
-0.951,0.143,-0.2,0.549,-0.793,0.061
-0.947,0.146,-0.193,-0.61,0.061,0.977
-0.948,0.147,-0.194,-0.793,0.244,1.099
-0.947,0.163,-0.197,-1.648,0.061,1.404
-0.946,0.168,-0.194,-2.563,0.671,1.709
-0.946,0.172,-0.192,-2.625,0.793,0.61
-0.949,0.163,-0.189,-2.747,1.16,0.061
-0.949,0.155,-0.192,-2.502,0.977,-0.244
-0.951,0.149,-0.191,-1.404,0.793,0.244
-0.948,0.143,-0.189,-0.549,0.671,0.977
-0.953,0.144,-0.193,-0.122,-0.305,0.916
-0.952,0.132,-0.188,-0.366,0.793,1.709
-0.951,0.135,-0.196,-0.488,-0.183,1.648
-0.948,0.124,-0.196,-0.916,1.404,2.93
-0.952,0.133,-0.192,0.0,-0.061,2.869
-0.948,0.142,-0.189,1.404,0.122,2.93
-0.947,0.161,-0.185,2.502,0.061,0.977
-0.953,0.155,-0.183,2.258,0.183,0.122
-0.956,0.15,-0.187,2.075,0.183,-0.122
-0.952,0.138,-0.185,0.977,0.732,-0.671
-0.951,0.138,-0.184,0.854,0.854,-0.854
-0.95,0.139,-0.184,0.427,0.244,-1.038
-0.953,0.146,-0.178,-0.305,-0.305,-1.099
-0.951,0.144,-0.178,1.221,-0.183,-0.61
-0.955,0.141,-0.183,1.465,-0.305,-0.427
-0.949,0.135,-0.186,2.075,0.366,0.061
-0.945,0.13,-0.19,1.099,0.183,-0.122

-0.747,-0.351,-0.197,-60.974,79.529,147.766
-0.923,-0.195,-0.094,-28.381,22.156,135.376
-1.064,0.172,-0.134,-23.987,-26.55,115.479
-0.969,0.511,-0.14,-19.775,0.305,115.967
-0.798,0.734,-0.122,-13.0,32.959,119.385
-0.574,0.847,-0.183,0.671,43.945,112.549
-0.273,0.571,-0.207,18.188,25.879,79.041
-0.468,-0.441,-0.307,32.776,-0.61,47.119
-2.904,-1.315,0.231,-3.418,-22.888,89.905
-1.26,0.212,0.012,-10.254,17.029,-18.799
-2.456,0.511,0.101,48.645,11.475,-75.562
-2.373,0.736,-0.334,84.229,7.446,-156.555
-2.305,0.957,-0.658,125.305,-43.579,-211.914
-2.39,-0.164,-1.189,164.978,-45.776,-204.163
-2.065,-0.623,-0.988,126.77,-10.498,-197.937
-0.815,-0.469,-0.623,56.03,86.548,-154.053
-0.85,-4.0,-1.359,-88.989,127.991,23.132
-0.663,-4.0,-0.042,71.472,6.47,170.105
0.028,-0.106,0.898,218.445,-40.833,158.447
0.157,0.995,0.27,292.419,-85.51,87.402
-0.161,1.441,0.486,-131.836,-56.58,92.102
-0.713,0.555,-0.583,-75.928,-45.227,88.379
-0.133,-0.051,-0.058,-92.285,8.728,117.554
0.068,0.532,-0.132,-84.229,-24.963,54.321
0.111,0.388,-0.051,-54.382,8.484,34.607
0.028,0.367,-0.154,-86.426,-10.803,1.892
0.108,0.313,-0.03,-99.792,3.601,-39.673
0.305,0.01,-0.035,-112.0,16.968,-89.233
0.404,-0.453,0.07,-140.93,31.372,-72.632
0.204,-0.788,0.074,-186.768,40.71,-27.466
-2.085,-3.417,0.017,-322.083,46.997,53.589
-4.0,1.846,0.224,108.032,-54.688,144.348
0.076,0.23,-0.448,151.062,99.243,14.465
-2.459,0.981,0.056,-117.188,88.562,172.18
-2.008,2.675,-0.364,-109.619,89.417,61.951
-0.324,1.2,-0.081,163.025,4.15,-34.424
-1.534,-0.161,-0.514,161.865,-108.154,-62.073
-2.02,-1.299,-0.707,109.497,-95.276,-10.193
-1.182,-0.774,-0.612,5.432,-53.65,-101.562
-1.253,0.344,-0.64,-77.332,-33.569,-84.534
-1.325,0.867,-0.217,-67.444,49.5,-6.653
-1.111,0.104,-0.125,-16.235,46.082,17.273
-1.072,-0.309,0.018,-30.396,33.875,14.526
-0.987,-0.476,0.125,-25.757,53.284,-5.92
-1.133,-0.39,-0.319,46.448,-40.955,-86.975
-1.044,-0.387,-0.229,0.793,17.029,-59.326
-1.032,0.164,-0.095,-17.334,17.395,-62.073
-0.825,0.071,-0.082,-21.057,0.488,-79.285
-0.901,-0.059,-0.147,-33.63,9.033,-86.731
-0.837,-0.095,-0.147,-32.776,22.278,-83.069
-0.706,-0.041,-0.141,-24.292,18.066,-75.195
-0.692,0.013,-0.066,-8.667,-17.273,-74.463
-0.766,-0.016,-0.023,9.155,-31.738,-75.439
-0.798,-0.224,-0.05,14.771,-31.128,-72.693
-0.826,-0.282,0.02,6.592,-16.113,-64.148
-0.965,-0.176,-0.063,12.024,-9.46,-46.326
-0.966,-0.182,-0.12,14.526,-8.484,-44.25
-0.965,-0.093,-0.238,5.981,-9.338,-43.762
-0.937,0.091,-0.33,-1.587,-11.108,-45.227
-0.925,0.109,-0.309,-7.874,-8.972,-44.067
-0.945,0.092,-0.299,-14.465,1.099,-36.011
-1.003,0.02,-0.227,-22.644,8.667,-21.24
-1.009,-0.005,-0.157,-23.254,13.428,-8.728
-1.005,0.029,-0.099,-22.217,12.085,0.305
-0.973,0.177,-0.091,-1.404,0.366,12.573
-0.95,0.197,-0.113,7.263,-0.549,16.052
-0.938,0.21,-0.167,21.973,-1.587,20.569
-0.911,0.131,-0.242,18.127,5.127,24.536
-0.93,0.117,-0.222,2.747,6.592,17.456
-0.938,0.13,-0.204,-1.343,6.226,14.282
-0.93,0.149,-0.16,-7.446,7.629,9.888
-0.925,0.212,-0.157,-8.972,10.925,1.099
-0.922,0.205,-0.148,-4.517,6.714,-0.061
-0.95,0.205,-0.164,8.118,-7.263,-7.202
-0.963,0.135,-0.173,16.113,-4.272,-0.61
-0.962,0.141,-0.186,20.142,-3.845,6.897
-0.958,0.118,-0.193,19.043,-2.319,9.216
-0.96,0.114,-0.199,18.494,0.061,10.742
-0.947,0.134,-0.194,0.793,1.038,9.827
-0.955,0.179,-0.168,-3.784,2.563,10.01
-0.953,0.197,-0.152,-4.333,2.197,10.193
-0.952,0.201,-0.138,-1.526,0.0,9.644
-0.953,0.194,-0.144,0.366,-0.427,9.583
-0.963,0.164,-0.161,4.761,0.122,9.949
-0.967,0.142,-0.167,6.409,0.549,10.498
-0.954,0.11,-0.176,4.578,0.183,10.925
-0.951,0.106,-0.174,3.357,0.0,10.803
-0.955,0.117,-0.184,-1.221,0.916,9.888
-0.957,0.139,-0.17,-1.343,1.648,9.827
-0.954,0.154,-0.152,-2.014,2.747,8.85
-0.951,0.157,-0.146,-1.648,1.77,7.812
-0.954,0.143,-0.147,1.221,-0.916,4.456
-0.955,0.135,-0.161,3.601,-1.465,2.747
-0.953,0.123,-0.176,5.005,-1.465,2.136
-0.952,0.117,-0.189,3.357,-1.892,0.977
-0.953,0.115,-0.189,2.808,-1.526,0.488
-0.955,0.111,-0.186,-0.793,-0.61,-0.854
-0.957,0.115,-0.178,-1.953,-0.549,-1.038
-0.959,0.124,-0.174,-2.319,0.122,-2.38
-0.959,0.123,-0.156,-0.366,0.244,-3.601
-0.957,0.115,-0.164,0.305,0.183,-4.15
-0.953,0.093,-0.171,1.343,0.244,-4.272
-0.961,0.079,-0.185,1.282,-0.305,-4.395
-0.959,0.08,-0.192,1.709,-0.977,-4.089
-0.957,0.09,-0.191,1.404,-1.343,-4.333
-0.959,0.082,-0.187,1.282,-1.16,-4.333
-0.961,0.077,-0.19,1.831,-0.61,-3.662
-0.96,0.109,-0.181,0.854,-1.16,-2.319
-0.958,0.11,-0.182,1.038,-1.465,-2.197
-0.956,0.119,-0.186,1.038,-1.038,-1.465
-0.954,0.121,-0.185,1.465,-0.61,-1.343
-0.957,0.12,-0.193,2.625,-1.038,-1.099
-0.96,0.116,-0.192,2.991,-1.221,-0.305
-0.958,0.111,-0.182,2.014,-0.549,0.793
-0.954,0.111,-0.182,2.441,-0.427,0.977
-0.951,0.124,-0.183,1.953,-0.732,0.549
-0.953,0.124,-0.183,1.77,-0.488,0.549
-0.951,0.126,-0.189,1.953,-0.427,0.793
-0.951,0.126,-0.191,1.343,-0.488,0.732

-1.193,-0.745,-0.065,10.132,0.61,83.862
-1.392,-0.802,-0.012,-2.014,2.686,91.309
-1.434,-0.594,0.003,1.404,10.437,86.182
-1.329,-0.425,-0.067,1.831,17.151,75.5
-1.189,-0.288,-0.113,1.465,14.343,60.791
-1.142,-0.155,-0.198,6.958,6.104,43.213
-1.238,0.015,-0.347,20.386,-13.184,9.705
-1.856,-0.303,-0.03,10.01,-10.01,-17.456
-2.011,0.287,0.593,-9.094,48.706,-82.825
-2.148,0.767,0.179,73.242,27.893,-131.531
-2.172,0.783,-0.055,102.783,24.78,-141.479
-1.911,-0.981,-1.146,165.161,-49.438,-174.866
-0.293,-2.787,-0.0,-23.193,50.842,-71.106
-0.151,-4.0,-0.406,-90.82,65.979,116.211
-0.5,-0.726,-0.883,128.723,-105.652,96.924
-0.009,0.449,-0.003,103.577,-83.13,41.077
0.184,2.873,1.307,-302.612,27.649,72.632
-0.267,0.444,-0.208,38.147,-10.559,117.126
-0.531,0.466,0.689,-90.332,38.086,135.437
0.259,0.669,0.141,-84.167,12.085,44.678
0.205,0.602,0.005,2.075,4.639,-17.761
-0.03,0.505,-0.148,28.564,-26.794,-45.349
-0.093,0.422,-0.166,36.499,-32.41,-62.317
-0.27,-0.115,0.078,-17.09,-7.263,-119.873
0.219,-0.757,0.058,-34.912,41.626,-120.483
0.35,-0.754,-0.111,-38.574,32.593,-116.028
0.074,-1.572,0.11,-147.888,8.545,-46.57
-2.685,-2.364,-0.278,-216.125,-15.564,110.596
-0.19,0.859,-0.863,142.944,56.702,26.733
-0.022,-0.196,0.17,68.665,17.517,-27.71
-4.0,-4.0,3.386,-197.266,-211.914,134.277
-2.07,4.0,-0.553,-7.69,121.399,75.317
0.136,3.954,-0.405,160.217,117.554,16.479
-0.556,0.709,-0.167,174.316,-134.46,-147.217
-2.405,-2.335,-0.662,88.379,-49.622,-39.246
-0.769,0.131,-0.095,-52.307,-48.218,-118.164
-1.162,0.585,-0.015,10.315,46.692,4.15
-1.12,0.307,-0.145,47.119,57.678,18.616
-0.828,-0.423,0.049,112.976,132.751,65.369
-1.01,-0.186,-0.245,20.691,-96.069,-121.765
-1.064,-0.053,-0.367,12.39,-36.194,-94.299
-0.859,-0.035,-0.159,-1.648,7.08,-56.152
-0.8,0.034,-0.048,-15.564,34.973,-30.029
-0.774,-0.286,-0.247,-25.33,17.761,-51.514
-0.979,-0.087,0.078,-3.662,-15.381,-49.438
-0.934,-0.024,-0.058,28.564,-19.531,-47.607
-0.925,-0.013,-0.09,39.673,-20.752,-45.227
-0.947,-0.055,-0.315,35.095,-26.978,-46.509
-0.932,0.087,-0.233,-0.488,-12.207,-36.56
-0.971,0.108,-0.124,-4.15,-4.211,-27.527
-0.981,0.084,-0.113,1.038,-0.977,-16.357
-0.979,0.143,-0.16,1.831,1.221,-6.226
-0.95,0.181,-0.179,-0.244,4.333,-2.38
-0.911,0.217,-0.197,1.892,4.333,-2.869
-0.916,0.178,-0.268,2.014,0.854,-5.92
-0.927,0.155,-0.257,-0.122,1.587,-7.019
-0.937,0.147,-0.192,-5.676,2.38,-9.46
-0.947,0.192,-0.144,-7.812,0.366,-12.756
-0.951,0.186,-0.157,-8.301,0.671,-12.573
-0.986,0.113,-0.22,-13.0,4.272,-6.47
-0.971,0.159,-0.23,-7.141,-8.972,-6.226
-0.921,0.257,-0.15,17.944,-0.427,3.235
-0.937,0.271,-0.184,21.606,-8.301,0.183
-0.923,0.213,-0.188,17.578,-4.7,-0.732
-0.917,0.258,-0.185,8.85,-2.625,-2.686
-0.922,0.267,-0.187,4.456,-1.099,-4.578
-0.927,0.242,-0.16,4.15,1.526,-4.272
-0.933,0.228,-0.16,3.784,0.671,-4.211
-0.95,0.205,-0.197,4.7,-1.465,-1.831
-0.95,0.195,-0.19,4.028,-1.038,-1.099
-0.945,0.189,-0.189,2.319,-0.732,-0.488
-0.938,0.19,-0.191,0.61,-0.916,-0.061
-0.938,0.201,-0.204,-1.282,-0.854,0.0
-0.935,0.211,-0.205,-2.991,-0.366,-0.061
-0.929,0.247,-0.177,-2.991,0.122,0.977
-0.932,0.236,-0.184,-2.319,0.122,1.221
-0.932,0.226,-0.192,-1.526,0.183,1.404
-0.934,0.222,-0.198,-1.099,-0.61,1.038
-0.931,0.221,-0.194,-0.732,-0.488,1.16
-0.93,0.221,-0.196,-1.77,0.305,0.305
-0.934,0.222,-0.19,-2.014,0.793,0.366
-0.931,0.218,-0.191,-1.709,1.221,0.305
-0.937,0.208,-0.19,-0.122,0.916,0.61
-0.94,0.21,-0.192,0.183,0.61,0.488
-0.936,0.217,-0.188,0.61,-0.061,0.0
-0.929,0.223,-0.196,1.038,0.0,0.183
-0.937,0.216,-0.191,1.221,0.916,0.305
-0.936,0.207,-0.19,1.343,0.732,0.732
-0.934,0.21,-0.19,1.404,0.61,0.671
-0.935,0.216,-0.19,1.343,0.427,0.427
-0.932,0.218,-0.189,1.648,0.244,0.305
-0.934,0.222,-0.186,1.892,0.61,0.305
-0.932,0.218,-0.19,2.38,0.366,0.366
-0.934,0.217,-0.191,2.075,0.366,0.427
-0.931,0.216,-0.191,1.77,0.549,0.244
-0.933,0.218,-0.186,1.282,0.549,0.0
-0.936,0.222,-0.186,1.038,0.427,0.0
-0.933,0.221,-0.188,0.916,0.549,-0.061
-0.935,0.217,-0.188,0.916,1.038,-0.061
-0.934,0.218,-0.187,0.854,1.099,-0.122
-0.935,0.219,-0.188,0.671,0.977,-0.183
-0.935,0.216,-0.188,0.244,0.549,-0.305
-0.934,0.215,-0.185,-0.183,0.916,-0.244
