aX,aY,aZ,gX,gY,gZ
-0.876,0.36,-0.219,0.183,0.183,0.183
-0.878,0.359,-0.219,0.244,0.183,0.061
-0.877,0.356,-0.217,0.427,0.366,0.122
-0.876,0.356,-0.218,0.366,0.366,0.0
-0.877,0.357,-0.219,0.0,0.183,0.0
-0.878,0.358,-0.219,-0.122,0.122,0.122
-0.876,0.356,-0.22,0.244,0.305,0.305
-0.876,0.355,-0.22,0.122,0.427,0.122
-0.874,0.354,-0.219,-0.061,0.488,0.061
-0.877,0.358,-0.219,-0.549,0.427,-0.427
-0.876,0.359,-0.22,-0.61,0.366,-0.549
-0.876,0.358,-0.219,-0.61,0.732,-0.488
-0.877,0.356,-0.22,-0.549,0.671,-0.61
-0.876,0.355,-0.221,-0.854,0.671,-0.61
-0.876,0.356,-0.221,-0.977,0.427,-0.671
-0.876,0.361,-0.22,-0.793,0.732,-0.61
-0.875,0.359,-0.222,-0.366,0.427,-0.549
-0.876,0.359,-0.221,-0.183,0.427,-0.549
-0.876,0.36,-0.221,-0.427,0.305,-0.244
-0.875,0.361,-0.222,-0.244,0.183,-0.305
-0.875,0.363,-0.221,-0.183,0.061,-0.244
-0.877,0.362,-0.223,-0.061,0.244,-0.488
-0.874,0.359,-0.221,0.183,0.244,-0.244
-0.873,0.357,-0.221,0.122,0.305,-0.183
-0.879,0.358,-0.221,-0.122,0.305,-0.305
-0.877,0.358,-0.219,0.061,0.366,-0.244
-0.878,0.356,-0.221,-0.122,0.427,-0.427
-0.876,0.357,-0.224,-0.366,0.549,-0.488
-0.875,0.358,-0.223,-0.366,0.488,-0.61
-0.875,0.359,-0.224,-0.488,0.61,-0.488
-0.878,0.36,-0.224,-0.549,0.549,-0.427
-0.875,0.36,-0.222,-0.61,0.732,-0.244
-0.875,0.361,-0.221,-0.671,0.61,-0.427
-0.877,0.362,-0.221,-0.244,0.305,-0.427
-0.875,0.359,-0.221,-0.244,0.549,-0.488
-0.875,0.359,-0.222,0.0,0.305,-0.366
-0.875,0.36,-0.222,-0.061,0.122,-0.488
-0.875,0.358,-0.224,-0.183,0.427,-0.427
-0.875,0.359,-0.222,-0.183,0.244,-0.488
-0.876,0.359,-0.221,-0.061,0.305,-0.427
-0.878,0.359,-0.221,-0.183,0.183,-0.549
-0.876,0.357,-0.222,-0.061,0.366,-0.366
-0.878,0.36,-0.224,-0.366,0.427,-0.671
-0.876,0.36,-0.223,-0.732,0.488,-0.549
-0.874,0.363,-0.225,-0.549,0.549,-0.732
-0.874,0.361,-0.224,-0.427,0.732,-0.61
-0.874,0.362,-0.223,-0.427,0.488,-0.61
-0.873,0.363,-0.223,-0.366,0.488,-0.793
-0.875,0.361,-0.223,-0.183,0.549,-0.854
-0.875,0.361,-0.223,-0.305,0.488,-0.793
-0.875,0.361,-0.224,-0.427,0.305,-0.732
-0.874,0.364,-0.223,-0.244,0.427,-0.854
-0.873,0.361,-0.224,-0.122,0.671,-0.793
-0.875,0.357,-0.223,0.061,0.305,-0.732
-0.875,0.358,-0.224,-0.122,0.305,-0.732
-0.876,0.358,-0.223,-0.427,0.61,-0.671
-0.875,0.361,-0.224,-0.671,0.671,-0.793
-0.875,0.361,-0.224,-0.61,0.732,-0.793
-0.874,0.36,-0.223,-0.427,0.488,-0.732
-0.875,0.361,-0.225,-0.305,0.549,-0.854
-0.876,0.363,-0.225,-0.427,0.549,-0.793
-0.873,0.364,-0.224,-0.977,0.793,-0.488
-0.871,0.366,-0.224,-0.549,0.732,-0.61
-0.871,0.366,-0.224,-0.305,0.61,-0.671
-0.871,0.364,-0.223,-0.244,0.488,-0.61
-0.874,0.365,-0.224,-0.122,0.244,-0.732
-0.873,0.365,-0.225,0.122,0.427,-0.549
-0.874,0.365,-0.225,0.0,0.549,-0.671
-0.872,0.362,-0.226,-0.183,0.427,-0.671
-0.874,0.36,-0.225,-0.183,0.488,-0.61
-0.876,0.36,-0.226,-0.122,0.61,-0.61
-0.873,0.36,-0.224,-0.122,0.793,-0.427
-0.873,0.362,-0.225,-0.122,0.244,-0.488
-0.873,0.362,-0.224,-0.061,0.305,-0.427
-0.872,0.364,-0.225,0.122,0.488,-0.488
-0.872,0.365,-0.224,-0.244,0.488,-0.549
-0.872,0.365,-0.226,-0.061,0.488,-0.549
-0.873,0.366,-0.226,0.0,0.549,-0.488
-0.871,0.366,-0.225,-0.183,0.366,-0.488
-0.872,0.367,-0.224,-0.122,0.549,-0.671
-0.874,0.369,-0.224,0.305,0.671,-0.549
-0.871,0.367,-0.223,0.244,0.305,-0.366
-0.872,0.365,-0.225,0.122,0.122,-0.366
-0.872,0.364,-0.225,0.305,0.244,-0.427
-0.872,0.365,-0.224,0.183,0.244,-0.366
-0.872,0.364,-0.226,0.305,0.366,-0.305
-0.872,0.366,-0.226,0.244,0.183,-0.183
-0.872,0.365,-0.225,0.061,0.366,-0.244
-0.874,0.367,-0.226,-0.122,0.61,-0.183
-0.871,0.367,-0.225,-0.122,0.671,-0.244
-0.872,0.365,-0.226,0.061,0.549,-0.122
-0.871,0.365,-0.224,0.122,0.488,-0.183
-0.872,0.367,-0.226,0.244,0.244,-0.061
-0.871,0.367,-0.225,0.183,0.366,-0.122
-0.872,0.367,-0.226,0.0,0.427,-0.244
-0.873,0.368,-0.227,-0.122,0.488,-0.061
-0.872,0.365,-0.224,-0.122,0.549,-0.244
-0.873,0.365,-0.224,-0.183,0.61,-0.183
-0.874,0.366,-0.225,-0.122,0.427,-0.183
-0.873,0.364,-0.224,-0.061,0.488,-0.305
-0.872,0.365,-0.224,-0.183,0.366,-0.305
-0.873,0.365,-0.225,-0.122,0.427,-0.366
-0.871,0.365,-0.225,-0.427,0.732,-0.366
-0.872,0.365,-0.224,-0.61,0.854,-0.305
-0.871,0.365,-0.223,0.122,0.488,-0.305
-0.872,0.365,-0.222,0.183,0.305,-0.366
-0.874,0.367,-0.224,-0.061,0.671,-0.427
-0.873,0.366,-0.224,0.061,0.61,-0.305
-0.872,0.368,-0.225,0.0,0.427,-0.366
-0.871,0.367,-0.223,-0.183,0.61,-0.427
-0.868,0.371,-0.223,0.244,0.366,-0.366
-0.87,0.372,-0.224,0.671,0.366,-0.305
-0.871,0.368,-0.225,0.916,0.244,-0.244
-0.871,0.366,-0.223,0.916,0.305,-0.183
-0.871,0.368,-0.224,0.732,0.0,-0.183
-0.871,0.366,-0.224,0.488,0.183,-0.244
-0.871,0.367,-0.225,0.732,0.183,-0.183
-0.873,0.364,-0.225,1.099,0.122,-0.122
-0.873,0.362,-0.227,1.038,-0.061,0.0

-0.872,0.364,-0.225,0.488,0.0,0.183
-0.871,0.365,-0.223,0.122,0.183,0.0
-0.872,0.365,-0.225,0.305,0.366,0.0
-0.872,0.365,-0.225,0.427,0.305,-0.122
-0.872,0.365,-0.224,0.183,0.427,0.122
-0.873,0.367,-0.224,0.122,0.366,0.0
-0.873,0.37,-0.224,0.183,0.244,0.061
-0.874,0.37,-0.225,0.427,0.244,0.183
-0.871,0.366,-0.224,0.61,0.366,0.244
-0.871,0.367,-0.222,0.793,0.366,0.305
-0.873,0.366,-0.224,0.793,0.0,0.244
-0.871,0.365,-0.223,0.793,0.061,0.488
-0.872,0.364,-0.224,0.61,-0.061,0.427
-0.872,0.362,-0.223,0.671,0.244,0.244
-0.871,0.365,-0.225,-0.122,0.549,0.122
-0.871,0.365,-0.225,-0.244,0.427,0.122
-0.871,0.367,-0.225,-0.244,0.488,0.0
-0.873,0.368,-0.225,-0.549,0.427,0.061
-0.872,0.365,-0.224,-0.366,0.671,0.0
-0.875,0.365,-0.225,-0.427,0.61,-0.061
-0.872,0.364,-0.224,-0.549,0.61,-0.061
-0.874,0.367,-0.222,-0.427,0.488,0.061
-0.872,0.368,-0.223,-0.427,0.549,0.122
-0.87,0.366,-0.223,-0.549,0.61,0.183
-0.871,0.366,-0.224,-0.427,0.366,0.183
-0.873,0.367,-0.223,0.0,0.183,0.122
-0.874,0.367,-0.224,0.0,0.244,0.061
-0.872,0.362,-0.224,0.0,0.305,0.183
-0.873,0.363,-0.223,-0.061,0.366,0.183
-0.875,0.364,-0.226,-0.366,0.305,0.183
-0.873,0.363,-0.225,-0.61,0.305,0.183
-0.872,0.362,-0.224,-0.305,0.366,0.244
-0.871,0.364,-0.225,-0.366,0.366,0.244
-0.872,0.364,-0.224,-0.427,0.549,0.244
-0.873,0.364,-0.224,-0.549,0.488,0.122
-0.871,0.364,-0.224,-0.427,0.671,0.183
-0.875,0.365,-0.224,-0.366,0.732,0.122
-0.874,0.363,-0.226,-0.244,0.488,0.061
-0.873,0.364,-0.225,-0.305,0.427,0.061
-0.871,0.366,-0.225,-0.427,0.549,0.061
-0.871,0.365,-0.226,0.0,0.183,0.183
-0.871,0.364,-0.225,0.122,0.122,-0.061
-0.873,0.361,-0.225,0.366,0.305,0.061
-0.872,0.361,-0.227,0.305,0.122,0.122
-0.874,0.361,-0.227,0.366,0.122,0.122
-0.876,0.362,-0.227,0.183,0.427,0.061
-0.874,0.361,-0.227,0.061,0.183,-0.122
-0.875,0.359,-0.226,0.0,0.427,-0.122
-0.875,0.361,-0.226,-0.122,0.488,0.0
-0.872,0.36,-0.224,-0.305,0.61,0.0
-0.873,0.364,-0.225,-0.183,0.305,0.0
-0.872,0.364,-0.226,-0.061,0.183,-0.122
-0.872,0.363,-0.226,15.442,0.671,-0.183
-0.872,0.363,-0.228,-0.183,0.61,-0.244
-0.873,0.364,-0.226,-0.366,0.61,-0.122
-0.873,0.363,-0.225,0.244,0.732,-0.244
-0.873,0.36,-0.228,0.244,0.427,-0.366
-0.875,0.36,-0.228,0.0,0.549,-0.244
-0.874,0.359,-0.227,-0.305,0.61,-0.244
-0.875,0.362,-0.228,-0.366,0.671,-0.305
-0.875,0.362,-0.226,-0.061,0.61,-0.366
-0.873,0.363,-0.224,-0.122,0.671,-0.244
-0.873,0.363,-0.225,-0.244,0.61,-0.305
-0.874,0.367,-0.227,-0.305,0.427,-0.549
-0.872,0.367,-0.228,-0.549,0.671,-0.488
-0.872,0.364,-0.226,-0.183,0.732,-0.305
-0.873,0.364,-0.226,-0.244,0.671,-0.427
-0.873,0.363,-0.225,-0.305,0.61,-0.488
-0.873,0.363,-0.225,-0.122,0.61,-0.427
-0.875,0.363,-0.226,0.0,0.671,-0.427
-0.873,0.36,-0.227,0.061,0.549,-0.427
-0.872,0.36,-0.226,-0.122,0.61,-0.305
-0.876,0.359,-0.228,-0.061,0.427,-0.305
-0.874,0.359,-0.228,-0.305,0.549,-0.183
-0.873,0.364,-0.226,-0.183,0.488,-0.244
-0.873,0.364,-0.226,-0.183,0.488,-0.183
-0.871,0.367,-0.224,-0.061,0.549,-0.244
-0.871,0.367,-0.224,-0.183,0.732,-0.244
-0.871,0.368,-0.225,0.0,0.549,-0.305
-0.873,0.369,-0.226,0.0,0.549,-0.305
-0.872,0.37,-0.224,-0.061,0.549,-0.366
-0.871,0.368,-0.226,0.122,0.488,-0.488
-0.875,0.364,-0.225,0.732,0.61,-0.061
-0.872,0.364,-0.225,0.488,0.305,-0.244
-0.872,0.364,-0.225,0.488,0.305,-0.183
-0.872,0.364,-0.224,0.366,0.427,-0.183
-0.873,0.362,-0.225,0.366,0.488,-0.244
-0.873,0.362,-0.226,0.366,0.427,-0.366
-0.873,0.362,-0.226,0.305,0.366,-0.122
-0.876,0.364,-0.226,0.0,0.671,-0.183
-0.874,0.365,-0.225,-0.305,0.488,-0.122
-0.874,0.365,-0.225,-0.061,0.916,-0.122
-0.871,0.365,-0.224,-0.122,0.793,-0.061
-0.872,0.365,-0.225,-0.244,0.732,-0.061
-0.872,0.366,-0.226,-0.061,0.488,0.122
-0.873,0.367,-0.226,-0.305,0.977,-0.061
-0.871,0.366,-0.225,-0.305,0.854,0.0
-0.872,0.364,-0.224,-0.122,0.916,0.061
-0.872,0.365,-0.224,0.0,1.099,0.122
-0.872,0.364,-0.224,-0.244,0.793,0.0
-0.871,0.366,-0.222,-0.366,0.671,0.0
-0.871,0.368,-0.224,-0.122,1.038,0.0
-0.871,0.366,-0.224,-0.122,0.854,0.0
-0.872,0.363,-0.224,0.122,0.854,0.0
-0.872,0.362,-0.224,0.0,0.793,0.0
-0.874,0.363,-0.223,-0.366,0.977,-0.061
-0.873,0.362,-0.222,-0.488,1.038,0.0
-0.875,0.363,-0.221,-0.427,0.977,0.0
-0.873,0.364,-0.222,-0.549,1.038,0.061
-0.872,0.364,-0.223,-0.549,0.793,0.122
-0.872,0.364,-0.223,-0.366,0.732,0.122
-0.872,0.364,-0.224,-0.305,0.854,0.0
-0.872,0.364,-0.224,-0.305,0.854,0.183
-0.875,0.362,-0.224,-0.061,0.61,0.305
-0.875,0.365,-0.22,-0.366,0.671,0.244
-0.873,0.364,-0.222,-0.122,0.732,0.366
-0.874,0.363,-0.22,0.0,0.732,0.488
-0.875,0.364,-0.223,0.061,0.549,0.366
-0.873,0.362,-0.221,0.122,0.61,0.427

-0.874,0.364,-0.222,-0.305,0.61,0.305
-0.874,0.36,-0.222,0.0,0.61,0.366
-0.874,0.36,-0.222,0.0,0.61,0.305
-0.876,0.365,-0.223,0.0,0.488,0.244
-0.875,0.363,-0.221,0.061,0.671,0.305
-0.874,0.363,-0.221,0.244,0.366,0.244
-0.873,0.362,-0.221,0.183,0.61,0.305
-0.877,0.362,-0.223,0.122,0.305,0.305
-0.875,0.362,-0.223,0.183,0.549,0.488
-0.873,0.364,-0.223,-0.061,0.488,0.366
-0.871,0.364,-0.222,0.061,0.488,0.366
-0.872,0.364,-0.222,0.0,0.183,0.244
-0.874,0.363,-0.223,0.244,0.366,0.0
-0.875,0.361,-0.222,0.122,0.61,0.0
-0.876,0.357,-0.224,0.122,0.488,0.061
-0.876,0.356,-0.224,0.305,0.549,0.122
-0.879,0.357,-0.224,-0.183,0.427,0.061
-0.876,0.359,-0.223,-0.305,0.732,0.0
-0.875,0.358,-0.223,-0.488,0.61,-0.061
-0.874,0.36,-0.223,-0.183,0.549,-0.061
-0.875,0.362,-0.222,0.0,0.488,0.0
-0.875,0.362,-0.223,-0.061,0.427,-0.061
-0.874,0.36,-0.223,-0.183,0.549,-0.244
-0.874,0.36,-0.224,-0.366,0.549,-0.305
-0.875,0.361,-0.224,-0.427,0.671,-0.305
-0.875,0.361,-0.223,-0.366,0.732,-0.183
-0.875,0.36,-0.222,-0.122,0.427,-0.061
-0.876,0.36,-0.222,0.0,0.488,-0.122
-0.876,0.359,-0.223,-0.122,0.488,-0.244
-0.875,0.359,-0.223,0.0,0.549,-0.122
-0.875,0.36,-0.224,-0.183,0.488,-0.244
-0.877,0.36,-0.225,-0.244,0.488,-0.061
-0.874,0.359,-0.224,-0.244,0.671,-0.244
-0.875,0.36,-0.222,0.0,0.366,-0.183
-0.876,0.361,-0.223,-0.061,0.305,-0.061
-0.875,0.36,-0.222,-0.061,0.305,-0.244
-0.875,0.36,-0.223,-0.061,0.244,-0.183
-0.876,0.359,-0.223,-0.122,0.305,-0.061
-0.875,0.358,-0.225,-0.061,0.488,-0.244
-0.876,0.359,-0.223,-0.244,0.305,-0.183
-0.877,0.362,-0.224,-0.305,0.366,-0.183
-0.875,0.361,-0.222,-0.305,0.427,-0.061
-0.875,0.361,-0.222,-0.183,0.427,-0.244
-0.876,0.362,-0.224,-0.244,0.549,-0.244
-0.875,0.36,-0.223,-0.244,0.61,-0.183
-0.874,0.361,-0.225,0.061,0.488,-0.183
-0.874,0.361,-0.225,0.122,0.244,-0.183
-0.874,0.358,-0.223,-0.061,0.732,-0.122
-0.875,0.359,-0.224,-0.122,0.549,-0.122
-0.875,0.36,-0.222,-0.183,0.488,-0.122
-0.877,0.359,-0.223,-0.061,0.549,-0.122
-0.875,0.36,-0.225,-0.183,0.427,-0.122
-0.874,0.36,-0.224,-0.305,0.488,-0.244
-0.876,0.364,-0.226,-0.305,0.488,-0.305
-0.873,0.361,-0.225,-0.183,0.549,-0.305
-0.874,0.36,-0.224,-0.061,0.488,-0.366
-0.875,0.36,-0.224,0.061,0.305,-0.305
-0.874,0.36,-0.225,-0.305,0.488,-0.244
-0.876,0.359,-0.224,-0.122,0.549,-0.427
-0.875,0.359,-0.225,-0.183,0.549,-0.183
-0.877,0.359,-0.225,-0.366,0.549,-0.366
-0.875,0.361,-0.225,-0.366,0.305,-0.305
-0.875,0.361,-0.226,-0.244,0.549,-0.244
-0.875,0.363,-0.225,-0.244,0.671,-0.244
-0.873,0.361,-0.223,0.0,0.427,-0.305
-0.875,0.36,-0.223,0.122,0.488,-0.122
-0.875,0.36,-0.223,0.061,0.305,-0.244
-0.874,0.36,-0.226,-0.061,0.488,-0.305
-0.874,0.361,-0.227,-0.427,0.488,-0.366
-0.876,0.363,-0.224,-0.366,0.61,-0.427
-0.873,0.364,-0.224,-0.366,0.427,-0.366
-0.872,0.365,-0.224,-0.427,0.427,-0.427
-0.876,0.363,-0.225,-0.122,0.305,-0.366
-0.873,0.362,-0.224,-0.122,0.366,-0.488
-0.874,0.362,-0.226,-0.183,0.427,-0.427
-0.874,0.364,-0.225,-0.122,0.122,-0.305
-0.873,0.361,-0.226,-0.244,0.305,-0.427
-0.873,0.364,-0.225,-0.122,0.427,-0.427
-0.875,0.365,-0.224,-0.122,0.366,-0.366
-0.873,0.364,-0.226,0.183,0.244,-0.488
-0.872,0.362,-0.225,0.244,0.244,-0.61
-0.875,0.36,-0.226,-0.183,0.427,-0.549
-0.875,0.363,-0.225,-0.427,0.366,-0.61
-0.872,0.362,-0.225,0.183,0.427,-0.549
-0.872,0.362,-0.224,0.183,0.305,-0.61
-0.875,0.361,-0.225,0.244,0.244,-0.427
-0.875,0.362,-0.226,0.0,0.061,-0.427
-0.872,0.364,-0.225,0.122,0.244,-0.549
-0.875,0.365,-0.227,-0.122,0.61,-0.366
-0.871,0.36,-0.224,0.427,0.488,-0.427
-0.872,0.359,-0.224,0.488,0.61,-0.305
-0.876,0.362,-0.225,0.244,0.305,-0.244
-0.875,0.363,-0.226,0.122,0.122,-0.488
-0.873,0.364,-0.226,0.305,0.183,-0.366
-0.873,0.36,-0.225,0.427,0.427,-0.244
-0.874,0.36,-0.225,0.305,0.427,-0.305
-0.875,0.363,-0.226,-0.244,0.488,-0.427
-0.872,0.364,-0.225,-0.122,0.61,-0.183
-0.871,0.365,-0.227,0.0,0.427,-0.366
-0.871,0.364,-0.225,0.122,0.366,-0.366
-0.873,0.361,-0.226,0.305,0.366,-0.366
-0.873,0.361,-0.224,0.427,0.244,-0.305
-0.874,0.362,-0.225,0.183,0.305,-0.366
-0.873,0.361,-0.225,-0.122,0.671,-0.549
-0.874,0.36,-0.225,-0.122,0.427,-0.366
-0.873,0.361,-0.226,-0.061,0.488,-0.549
-0.875,0.362,-0.226,0.0,0.549,-0.427
-0.874,0.363,-0.227,-0.244,0.671,-0.366
-0.872,0.362,-0.226,0.061,0.366,-0.305
-0.872,0.363,-0.225,0.061,0.427,-0.305
-0.872,0.364,-0.224,0.0,0.671,-0.305
-0.872,0.364,-0.224,0.0,0.427,-0.305
-0.872,0.363,-0.223,0.244,0.427,-0.244
-0.875,0.364,-0.225,0.122,0.549,-0.244
-0.872,0.364,-0.226,-0.061,0.61,-0.305
-0.872,0.364,-0.226,-0.122,0.488,-0.305
-0.874,0.366,-0.226,-0.183,0.732,-0.366
-0.872,0.365,-0.225,-0.366,0.916,-0.244
-0.872,0.364,-0.224,-0.061,0.427,-0.305

-0.874,0.362,-0.222,-0.183,0.549,-0.244
-0.873,0.363,-0.226,-0.427,0.488,-0.061
-0.873,0.366,-0.227,-0.549,0.61,-0.183
-0.872,0.366,-0.224,-0.488,0.732,-0.122
-0.872,0.365,-0.224,-0.488,0.732,-0.244
-0.872,0.365,-0.224,-0.549,0.793,-0.183
-0.874,0.366,-0.224,-0.244,0.793,-0.061
-0.872,0.366,-0.223,-0.549,0.977,-0.122
-0.872,0.366,-0.222,-0.366,0.549,-0.122
-0.872,0.365,-0.223,0.061,0.549,-0.061
-0.872,0.366,-0.224,-0.366,0.61,-0.061
-0.871,0.366,-0.226,-0.061,0.488,-0.061
-0.873,0.363,-0.224,-0.122,0.549,-0.122
-0.875,0.365,-0.225,-0.305,0.671,-0.183
-0.873,0.365,-0.224,-0.488,0.671,-0.122
-0.873,0.365,-0.223,-0.366,0.549,-0.122
-0.874,0.367,-0.222,-0.244,0.671,-0.183
-0.872,0.365,-0.222,-0.305,0.671,-0.244
-0.873,0.366,-0.224,-0.183,0.549,-0.366
-0.873,0.364,-0.223,-0.122,0.671,-0.244
-0.872,0.365,-0.225,-0.183,0.549,-0.366
-0.871,0.363,-0.224,-0.244,0.305,-0.244
-0.873,0.365,-0.223,-0.305,0.61,-0.244
-0.872,0.364,-0.222,-0.183,0.549,-0.366
-0.873,0.365,-0.223,0.061,0.488,-0.488
-0.874,0.364,-0.224,-0.061,0.366,-0.183
-0.873,0.364,-0.225,-0.122,0.61,-0.305
-0.872,0.366,-0.225,0.122,0.427,-0.427
-0.871,0.365,-0.225,0.0,0.366,-0.305
-0.872,0.365,-0.224,0.122,0.427,-0.488
-0.875,0.363,-0.224,0.0,0.671,-0.549
-0.874,0.361,-0.224,0.0,0.549,-0.366
-0.873,0.363,-0.225,0.0,0.244,-0.549
-0.876,0.365,-0.224,-0.061,0.488,-0.427
-0.871,0.365,-0.224,-0.061,0.549,-0.427
-0.873,0.365,-0.224,0.183,0.549,-0.366
-0.872,0.365,-0.224,0.0,0.488,-0.244
-0.872,0.365,-0.223,0.427,0.427,-0.427
-0.874,0.366,-0.224,0.488,0.488,-0.488
-0.873,0.364,-0.225,0.183,0.366,-0.488
-0.872,0.364,-0.224,0.122,0.549,-0.549
-0.873,0.367,-0.224,-0.305,0.671,-0.61
-0.872,0.366,-0.224,-0.488,0.732,-0.488
-0.875,0.365,-0.222,0.244,0.549,-0.305
-0.871,0.369,-0.223,1.099,0.488,-0.427
-0.872,0.366,-0.222,0.305,0.549,-0.122
-0.872,0.367,-0.225,0.122,0.244,-0.488
-0.872,0.366,-0.224,0.244,0.488,-0.305
-0.873,0.367,-0.225,0.122,0.61,-0.427
-0.872,0.366,-0.224,0.061,0.549,-0.305
-0.872,0.366,-0.223,0.0,0.427,-0.488
-0.874,0.367,-0.223,0.305,0.549,-0.305
-0.872,0.365,-0.222,0.122,0.183,-0.183
-0.872,0.365,-0.223,0.427,0.183,-0.122
-0.872,0.364,-0.223,0.427,0.244,-0.122
-0.871,0.365,-0.225,0.0,0.549,-0.305
-0.872,0.365,-0.225,-0.122,0.671,-0.427
-0.874,0.367,-0.223,-0.366,0.61,-0.366
-0.872,0.367,-0.221,-0.183,0.793,-0.244
-0.872,0.366,-0.222,-0.122,0.732,-0.183
-0.872,0.365,-0.223,0.122,0.427,-0.183
-0.873,0.366,-0.224,-0.061,0.427,-0.244
-0.872,0.366,-0.224,-0.061,0.61,-0.244
-0.873,0.365,-0.224,0.0,0.549,-0.366
-0.872,0.365,-0.223,-0.061,0.549,-0.427
-0.872,0.365,-0.221,-0.061,0.488,-0.305
-0.875,0.366,-0.223,0.0,0.488,-0.305
-0.871,0.365,-0.222,-0.061,0.427,-0.366
-0.877,0.367,-0.223,0.0,0.793,-0.427
-0.872,0.368,-0.222,-0.061,0.549,-0.427
-0.87,0.37,-0.223,0.0,0.61,-0.244
-0.87,0.371,-0.221,0.061,0.549,-0.366
-0.871,0.372,-0.222,-0.183,0.366,-0.488
-0.87,0.371,-0.221,0.122,0.366,-0.549
-0.871,0.369,-0.222,0.366,0.488,-0.244
-0.872,0.365,-0.223,0.427,0.244,-0.305
-0.872,0.364,-0.224,0.366,0.244,-0.244
-0.876,0.366,-0.223,0.244,0.488,-0.244
-0.873,0.365,-0.223,0.061,0.427,-0.244
-0.873,0.365,-0.223,0.244,0.671,-0.366
-0.873,0.365,-0.222,0.488,0.488,-0.305
-0.872,0.367,-0.223,0.366,0.427,-0.366
-0.871,0.366,-0.224,0.366,0.488,-0.183
-0.871,0.366,-0.223,0.0,0.732,-0.183
-0.872,0.365,-0.222,0.122,0.549,-0.305
-0.872,0.371,-0.22,-0.244,0.732,-0.122
-0.871,0.373,-0.221,-0.366,0.671,-0.305
-0.871,0.371,-0.222,-0.061,0.61,-0.366
-0.872,0.369,-0.223,0.122,0.488,-0.244
-0.871,0.368,-0.224,0.061,0.488,-0.366
-0.872,0.367,-0.223,0.122,0.427,-0.122
-0.872,0.366,-0.224,-0.061,0.671,-0.122
-0.872,0.365,-0.222,-0.122,0.854,-0.061
-0.872,0.365,-0.223,-0.183,0.61,-0.061
-0.871,0.365,-0.222,0.122,0.549,0.0
-0.871,0.368,-0.222,-0.061,0.732,-0.244
-0.871,0.368,-0.223,-0.183,0.549,-0.244
-0.873,0.369,-0.224,-0.366,0.488,-0.183
-0.872,0.368,-0.223,-0.305,0.549,-0.122
-0.871,0.367,-0.222,-0.183,0.732,-0.122
-0.871,0.365,-0.221,-0.427,0.793,-0.061
-0.873,0.366,-0.219,-0.244,0.732,-0.061
-0.873,0.368,-0.221,-0.366,0.61,-0.183
-0.871,0.368,-0.222,-0.122,0.732,0.061
-0.871,0.367,-0.224,-0.122,0.732,0.061
-0.871,0.37,-0.221,-0.244,0.61,0.0
-0.873,0.369,-0.222,-0.183,0.61,0.0
-0.872,0.369,-0.221,-0.183,0.488,0.0
-0.872,0.368,-0.223,-0.122,0.549,0.061
-0.875,0.366,-0.221,0.122,0.61,0.0
-0.872,0.367,-0.221,-0.366,0.732,0.061
-0.871,0.369,-0.222,-0.366,0.732,0.0
-0.871,0.368,-0.221,0.0,0.488,-0.061
-0.873,0.367,-0.223,-0.061,0.427,0.0
-0.873,0.366,-0.223,-0.061,0.305,-0.061
-0.872,0.368,-0.222,-0.366,0.671,0.0
-0.872,0.368,-0.224,-0.244,0.549,0.0
-0.871,0.371,-0.22,-0.183,0.427,-0.122
-0.871,0.371,-0.218,-0.305,0.488,-0.183

-0.873,0.364,-0.223,0.244,0.305,0.183
-0.873,0.365,-0.222,-0.061,0.305,-0.122
-0.873,0.365,-0.222,-0.244,0.488,-0.061
-0.873,0.365,-0.221,-0.122,0.61,-0.061
-0.874,0.366,-0.221,-0.122,0.549,-0.183
-0.873,0.366,-0.221,-0.244,0.61,-0.122
-0.872,0.365,-0.221,-0.122,0.488,0.122
-0.872,0.366,-0.221,0.0,0.366,-0.122
-0.874,0.368,-0.223,0.0,0.488,-0.061
-0.872,0.366,-0.222,0.244,0.61,-0.061
-0.873,0.365,-0.221,0.122,0.244,-0.183
-0.873,0.365,-0.221,-0.244,0.488,-0.244
-0.872,0.367,-0.221,-0.122,0.61,-0.244
-0.872,0.367,-0.221,-0.244,0.427,-0.122
-0.874,0.366,-0.221,0.183,0.427,-0.183
-0.873,0.365,-0.222,0.183,0.305,-0.122
-0.873,0.366,-0.222,0.122,0.305,-0.183
-0.873,0.366,-0.223,0.0,0.244,-0.244
-0.872,0.367,-0.222,-0.183,0.488,-0.244
-0.872,0.366,-0.223,-0.183,0.427,-0.305
-0.872,0.366,-0.221,-0.122,0.366,-0.366
-0.872,0.367,-0.222,-0.183,0.549,-0.305
-0.872,0.366,-0.222,0.0,0.366,-0.366
-0.874,0.364,-0.222,0.366,0.305,-0.305
-0.874,0.365,-0.222,0.183,0.183,-0.366
-0.873,0.366,-0.224,0.244,0.427,-0.427
-0.874,0.369,-0.224,-0.061,0.61,-0.305
-0.873,0.365,-0.221,0.183,0.488,-0.549
-0.873,0.365,-0.219,0.305,0.427,-0.427
-0.872,0.366,-0.223,0.061,0.549,-0.427
-0.872,0.366,-0.223,-0.122,0.488,-0.427
-0.872,0.366,-0.223,-0.122,0.488,-0.549
-0.873,0.366,-0.225,0.0,0.61,-0.488
-0.873,0.366,-0.223,-0.122,0.61,-0.366
-0.872,0.367,-0.223,-0.061,0.366,-0.366
-0.872,0.366,-0.221,0.061,0.549,-0.244
-0.871,0.367,-0.222,0.0,0.488,-0.366
-0.87,0.368,-0.221,0.122,0.366,-0.244
-0.872,0.367,-0.223,0.305,0.122,-0.427
-0.872,0.366,-0.223,0.305,0.183,-0.305
-0.871,0.367,-0.223,-0.061,0.61,-0.244
-0.874,0.369,-0.224,0.122,0.732,-0.244
-0.872,0.368,-0.222,0.183,0.244,-0.427
-0.875,0.369,-0.222,0.305,0.244,-0.244
-0.872,0.367,-0.221,0.305,0.488,-0.366
-0.871,0.365,-0.224,0.244,0.488,-0.183
-0.872,0.364,-0.224,0.122,0.488,-0.244
-0.873,0.365,-0.223,-0.122,0.549,-0.244
-0.872,0.368,-0.221,-0.122,0.488,-0.244
-0.871,0.37,-0.221,-0.122,0.854,-0.427
-0.873,0.369,-0.22,0.0,0.793,-0.305
-0.871,0.369,-0.223,0.183,0.427,-0.366
-0.871,0.367,-0.222,0.244,0.366,-0.488
-0.873,0.369,-0.223,0.061,0.427,-0.366
-0.871,0.366,-0.224,-0.061,0.61,-0.183
-0.873,0.366,-0.223,-0.122,0.732,-0.427
-0.872,0.368,-0.222,-0.061,0.732,-0.122
-0.871,0.368,-0.22,-0.183,0.549,-0.183
-0.871,0.369,-0.22,-0.122,0.671,-0.183
-0.874,0.37,-0.22,-0.061,0.61,-0.122
-0.872,0.37,-0.221,0.061,0.549,-0.122
-0.871,0.369,-0.221,-0.061,0.549,-0.122
-0.87,0.369,-0.222,-0.122,0.671,-0.183
-0.872,0.369,-0.222,-0.244,0.671,-0.122
-0.872,0.368,-0.221,-0.244,0.793,-0.183
-0.872,0.369,-0.22,-0.122,0.732,-0.122
-0.871,0.37,-0.219,-0.366,0.671,-0.061
-0.872,0.371,-0.221,-0.183,0.427,-0.061
-0.87,0.37,-0.223,0.122,0.61,0.0
-0.869,0.369,-0.221,0.122,0.549,-0.183
-0.872,0.369,-0.221,-0.122,0.488,0.061
-0.871,0.369,-0.22,-0.061,0.671,0.0
-0.872,0.368,-0.22,0.0,0.671,-0.061
-0.872,0.367,-0.221,0.0,0.427,0.061
-0.872,0.367,-0.221,0.0,0.488,0.0
-0.872,0.368,-0.222,0.061,0.488,-0.061
-0.871,0.367,-0.223,-0.122,0.61,0.061
-0.871,0.366,-0.221,0.0,0.366,0.061
-0.873,0.366,-0.22,0.061,0.549,0.061
-0.871,0.372,-0.219,-0.183,0.671,0.122
-0.872,0.37,-0.22,0.244,0.366,0.061
-0.871,0.368,-0.221,0.183,0.427,-0.183
-0.871,0.369,-0.222,0.183,0.427,-0.061
-0.871,0.371,-0.222,0.244,0.427,0.122
-0.871,0.37,-0.221,0.122,0.549,0.122
-0.872,0.369,-0.22,0.305,0.427,0.122
-0.872,0.369,-0.221,0.488,0.305,0.183
-0.872,0.365,-0.221,0.488,0.549,0.061
-0.873,0.364,-0.221,0.305,0.427,0.0
-0.873,0.365,-0.22,0.244,0.305,-0.122
-0.875,0.365,-0.222,-0.244,0.366,-0.244
-0.872,0.366,-0.221,-0.183,0.488,-0.061
-0.872,0.367,-0.222,-0.122,0.549,-0.183
-0.873,0.368,-0.22,-0.122,0.488,-0.183
-0.872,0.367,-0.22,-0.061,0.61,-0.183
-0.872,0.368,-0.219,0.0,0.366,-0.122
-0.871,0.367,-0.219,0.244,0.427,-0.122
-0.872,0.368,-0.222,0.061,0.305,-0.122
-0.871,0.369,-0.221,-0.061,0.427,-0.305
-0.873,0.369,-0.221,0.0,0.488,-0.366
-0.872,0.366,-0.22,0.183,0.549,-0.061
-0.875,0.365,-0.221,0.183,0.366,-0.061
-0.874,0.365,-0.221,0.061,0.427,-0.122
-0.873,0.366,-0.221,-0.122,0.305,-0.122
-0.872,0.365,-0.222,0.122,0.366,-0.305
-0.872,0.367,-0.222,-0.061,0.427,-0.244
-0.872,0.368,-0.221,0.122,0.427,0.0
-0.873,0.369,-0.221,-0.122,0.427,-0.122
-0.872,0.365,-0.221,-0.122,0.488,-0.183
-0.872,0.365,-0.221,0.305,0.549,-0.244
-0.875,0.367,-0.224,-0.122,0.427,-0.122
-0.873,0.365,-0.222,0.0,0.61,-0.061
-0.872,0.366,-0.222,-0.061,0.427,-0.061
-0.872,0.366,-0.221,0.0,0.366,0.0
-0.872,0.365,-0.222,0.0,0.549,0.122
-0.872,0.365,-0.222,0.122,0.305,0.0
-0.872,0.366,-0.223,0.061,0.305,-0.061
-0.875,0.366,-0.223,-0.061,0.427,0.0
-0.873,0.365,-0.222,-0.305,0.671,-0.122

-0.872,0.366,-0.221,-0.549,0.671,-0.061
-0.872,0.367,-0.22,-0.549,0.61,-0.061
-0.872,0.368,-0.22,-0.488,0.61,-0.061
-0.872,0.367,-0.22,-0.366,0.732,-0.122
-0.875,0.368,-0.22,-0.244,0.671,-0.061
-0.872,0.366,-0.221,-0.366,0.732,-0.122
-0.873,0.365,-0.221,-0.305,0.793,-0.061
-0.872,0.365,-0.221,-0.549,0.549,0.122
-0.873,0.369,-0.221,-0.549,0.61,-0.061
-0.871,0.37,-0.221,-0.366,0.488,0.061
-0.873,0.368,-0.221,-0.244,0.61,0.0
-0.872,0.368,-0.22,-0.183,0.61,0.183
-0.873,0.365,-0.22,-0.061,0.488,0.0
-0.872,0.368,-0.22,-0.122,0.61,0.0
-0.873,0.367,-0.221,-0.305,0.366,0.0
-0.873,0.364,-0.22,0.0,0.671,0.122
-0.875,0.366,-0.222,-0.061,0.366,0.061
-0.872,0.365,-0.22,-0.061,0.366,0.0
-0.873,0.364,-0.222,0.061,0.488,0.061
-0.875,0.364,-0.222,-0.244,0.488,0.061
-0.874,0.365,-0.221,-0.183,0.427,0.183
-0.874,0.366,-0.222,-0.305,0.427,0.0
-0.872,0.366,-0.22,-0.305,0.61,0.183
-0.873,0.366,-0.221,0.244,0.366,0.244
-0.875,0.365,-0.221,0.244,0.244,0.122
-0.874,0.363,-0.221,0.061,0.366,0.0
-0.876,0.364,-0.221,-0.122,0.427,0.0
-0.875,0.363,-0.22,-0.183,0.61,-0.061
-0.874,0.364,-0.22,-0.183,0.671,-0.122
-0.872,0.365,-0.222,-0.061,0.488,0.0
-0.873,0.365,-0.221,-0.122,0.488,-0.183
-0.872,0.364,-0.221,0.183,0.427,-0.122
-0.873,0.362,-0.22,0.183,0.244,-0.122
-0.874,0.362,-0.22,0.183,0.244,0.0
-0.877,0.363,-0.221,0.183,0.183,-0.244
-0.873,0.364,-0.223,-0.183,0.549,-0.366
-0.874,0.363,-0.221,-0.122,0.549,-0.305
-0.874,0.362,-0.223,-0.427,0.488,-0.427
-0.876,0.364,-0.22,-0.122,0.671,-0.244
-0.874,0.364,-0.219,-0.061,0.427,-0.305
-0.873,0.363,-0.22,-0.122,0.366,-0.244
-0.875,0.363,-0.22,0.0,0.427,-0.183
-0.873,0.363,-0.22,-0.244,0.488,-0.305
-0.875,0.363,-0.22,-0.183,0.427,-0.244
-0.876,0.365,-0.22,-0.244,0.366,-0.366
-0.872,0.365,-0.221,-0.183,0.549,-0.366
-0.872,0.365,-0.22,-0.122,0.732,-0.427
-0.875,0.364,-0.22,-0.427,0.671,-0.305
-0.873,0.363,-0.22,-0.244,0.61,-0.305
-0.875,0.362,-0.22,-0.183,0.61,-0.305
-0.875,0.366,-0.222,-0.488,0.366,-0.427
-0.872,0.368,-0.22,-0.549,0.732,-0.488
-0.871,0.368,-0.221,-0.549,0.793,-0.61
-0.871,0.369,-0.22,0.061,0.366,-0.488
-0.872,0.37,-0.218,-0.122,0.244,-0.427
-0.872,0.371,-0.218,-0.122,0.244,-0.549
-0.874,0.367,-0.218,0.305,0.671,-0.244
-0.872,0.365,-0.221,0.183,0.366,-0.427
-0.873,0.365,-0.222,-0.244,0.183,-0.488
-0.872,0.366,-0.222,-0.244,0.122,-0.488
-0.873,0.366,-0.221,-0.061,0.366,-0.305
-0.873,0.365,-0.221,0.0,0.427,-0.366
-0.873,0.363,-0.221,-0.061,0.366,-0.122
-0.874,0.366,-0.221,-0.122,0.427,-0.122
-0.872,0.368,-0.221,0.061,0.305,-0.244
-0.87,0.369,-0.223,-0.122,0.183,-0.366
-0.871,0.369,-0.223,0.0,0.122,-0.305
-0.872,0.369,-0.223,-0.122,0.305,-0.427
-0.871,0.368,-0.222,0.061,0.305,-0.183
-0.872,0.366,-0.221,-0.183,0.366,-0.305
-0.873,0.367,-0.22,-0.244,0.549,-0.305
-0.873,0.365,-0.219,0.061,0.366,-0.366
-0.873,0.368,-0.222,-0.244,0.366,-0.305
-0.872,0.368,-0.223,0.183,0.305,-0.427
-0.872,0.365,-0.223,-0.244,0.305,-0.488
-0.873,0.367,-0.221,-0.61,0.427,-0.427
-0.872,0.369,-0.221,-0.61,0.427,-0.427
-0.872,0.37,-0.221,-0.244,0.549,-0.427
-0.871,0.368,-0.222,-0.305,0.488,-0.305
-0.871,0.369,-0.224,-0.244,0.183,-0.549
-0.871,0.37,-0.223,-0.366,0.488,-0.488
-0.871,0.371,-0.222,-0.427,0.671,-0.305
-0.871,0.369,-0.223,-0.305,0.366,-0.549
-0.872,0.366,-0.223,-0.244,0.61,-0.549
-0.871,0.368,-0.225,-0.305,0.427,-0.366
-0.87,0.368,-0.225,-0.305,0.366,-0.244
-0.871,0.372,-0.225,-0.366,0.61,-0.61
-0.869,0.367,-0.224,-0.183,0.854,-0.549
-0.87,0.366,-0.225,-0.366,0.549,-0.61
-0.872,0.363,-0.224,-0.183,0.427,-0.366
-0.874,0.363,-0.227,-0.427,0.488,-0.244
-0.874,0.362,-0.226,-0.427,0.427,-0.061
-0.873,0.365,-0.225,-0.61,0.61,-0.305
-0.873,0.367,-0.223,-0.61,0.916,0.061
-0.871,0.367,-0.224,-0.366,0.61,0.0
-0.873,0.368,-0.224,-0.244,0.427,-0.061
-0.871,0.368,-0.224,-0.488,0.61,0.0
-0.871,0.369,-0.224,-0.244,0.488,0.061
-0.871,0.368,-0.224,-0.305,0.549,0.0
-0.871,0.368,-0.225,-0.427,0.244,0.061
-0.871,0.368,-0.223,-0.366,0.366,0.183
-0.869,0.372,-0.224,-0.427,0.549,0.122
-0.872,0.373,-0.223,-0.549,0.671,0.183
-0.871,0.37,-0.225,-0.183,0.549,0.305
-0.87,0.369,-0.224,-0.244,0.427,0.122
-0.871,0.367,-0.223,0.0,0.305,0.427
-0.872,0.367,-0.225,-0.244,0.427,0.122
-0.871,0.368,-0.224,-0.305,0.366,0.244
-0.871,0.368,-0.224,-0.549,0.549,0.183
-0.869,0.368,-0.224,-0.366,0.488,0.244
-0.873,0.365,-0.224,0.0,0.305,0.366
-0.872,0.364,-0.224,0.183,0.244,0.366
-0.873,0.364,-0.224,-0.061,0.244,0.122
-0.872,0.364,-0.224,-0.305,0.488,0.244
-0.872,0.365,-0.224,-0.427,0.305,0.305
-0.873,0.366,-0.225,-0.305,0.488,0.183
-0.872,0.367,-0.225,-0.305,0.366,0.122
-0.872,0.364,-0.225,-0.061,0.366,0.122
-0.874,0.364,-0.226,-0.122,0.488,0.183

-0.872,0.364,-0.224,0.0,0.244,0.244
-0.875,0.366,-0.226,-0.366,0.244,0.183
-0.873,0.364,-0.224,-0.305,0.427,0.122
-0.873,0.363,-0.226,-0.183,0.305,0.183
-0.874,0.365,-0.227,-0.183,0.488,0.061
-0.872,0.364,-0.226,-0.427,0.671,0.0
-0.871,0.365,-0.225,-0.061,0.183,-0.061
-0.874,0.366,-0.225,-0.061,0.305,-0.122
-0.873,0.362,-0.225,0.122,0.549,0.061
-0.873,0.362,-0.224,-0.061,0.427,-0.244
-0.874,0.362,-0.227,-0.122,0.427,-0.427
-0.873,0.361,-0.226,-0.061,0.549,-0.427
-0.874,0.362,-0.228,-0.488,0.549,-0.244
-0.874,0.362,-0.227,-0.488,0.549,-0.305
-0.872,0.363,-0.226,-0.488,0.671,-0.183
-0.873,0.363,-0.225,-0.061,0.488,-0.122
-0.874,0.364,-0.225,0.061,0.183,-0.122
-0.872,0.366,-0.225,0.122,0.244,-0.244
-0.872,0.365,-0.225,0.183,0.488,-0.366
-0.875,0.364,-0.227,0.0,0.488,-0.366
-0.872,0.362,-0.227,-0.061,0.305,-0.305
-0.873,0.363,-0.227,-0.061,0.61,-0.244
-0.872,0.363,-0.225,0.122,0.549,-0.244
-0.872,0.362,-0.226,0.244,0.61,-0.305
-0.874,0.361,-0.228,0.061,0.549,-0.366
-0.874,0.363,-0.226,0.244,0.366,-0.244
-0.876,0.363,-0.226,0.244,0.366,-0.366
-0.872,0.365,-0.227,-0.183,0.61,-0.183
-0.872,0.368,-0.227,-0.244,0.61,-0.183
-0.871,0.367,-0.225,0.183,0.549,-0.366
-0.871,0.365,-0.224,0.122,0.549,-0.427
-0.871,0.365,-0.226,0.0,0.549,-0.183
-0.871,0.364,-0.226,0.122,0.549,-0.427
-0.872,0.365,-0.225,0.061,0.61,-0.488
-0.874,0.367,-0.225,-0.305,0.488,-0.427
-0.873,0.365,-0.226,0.366,0.244,-0.427
-0.872,0.363,-0.227,0.122,0.305,-0.427
-0.873,0.367,-0.228,-0.183,0.671,-0.366
-0.873,0.368,-0.226,-0.305,0.549,-0.488
-0.869,0.368,-0.228,-0.244,0.366,-0.549
-0.871,0.362,-0.225,0.244,0.549,-0.549
-0.871,0.37,-0.226,-0.183,0.427,-0.549
-0.871,0.369,-0.224,0.183,0.549,-0.488
-0.868,0.37,-0.225,0.488,0.183,-0.549
-0.871,0.368,-0.227,0.244,0.488,-0.549
-0.873,0.362,-0.228,0.488,0.427,-0.244
-0.872,0.363,-0.227,0.305,0.427,-0.061
-0.872,0.363,-0.227,0.0,0.671,0.0
-0.872,0.364,-0.226,-0.183,0.488,-0.122
-0.872,0.369,-0.225,-0.061,0.366,-0.183
-0.873,0.367,-0.224,0.183,0.549,-0.122
-0.871,0.364,-0.225,0.671,0.427,-0.122
-0.871,0.363,-0.226,0.488,0.244,-0.244
-0.871,0.365,-0.226,0.0,0.305,-0.305
-0.872,0.367,-0.228,-0.122,0.488,-0.366
-0.872,0.366,-0.227,-0.305,0.549,-0.305
-0.871,0.366,-0.227,-0.244,1.038,-0.244
-0.871,0.366,-0.226,-0.427,1.099,-0.122
-0.871,0.366,-0.225,-0.122,0.671,-0.183
-0.871,0.367,-0.224,-0.122,0.488,-0.244
-0.871,0.367,-0.225,0.305,0.488,-0.122
-0.87,0.368,-0.225,0.488,0.366,0.0
-0.872,0.367,-0.227,0.244,0.488,0.0
-0.87,0.366,-0.226,0.061,0.549,0.0
-0.872,0.368,-0.225,-0.122,0.488,-0.061
-0.872,0.366,-0.224,0.0,0.671,-0.122
-0.871,0.364,-0.223,0.0,0.427,-0.244
-0.873,0.363,-0.225,0.122,0.244,-0.061
-0.874,0.365,-0.227,0.0,0.427,-0.183
-0.872,0.365,-0.228,-0.122,0.671,-0.061
-0.871,0.365,-0.228,-0.305,0.671,-0.122
-0.873,0.368,-0.226,-0.732,0.854,-0.122
-0.871,0.367,-0.224,-0.732,0.977,-0.061
-0.871,0.367,-0.224,-0.427,0.549,-0.122
-0.871,0.366,-0.223,-0.183,0.61,0.0
-0.872,0.366,-0.225,-0.183,0.488,0.0
-0.872,0.366,-0.226,-0.244,0.427,0.183
-0.872,0.365,-0.228,0.061,0.61,0.0
-0.871,0.365,-0.226,-0.183,0.549,0.0
-0.872,0.365,-0.227,-0.183,0.427,0.183
-0.872,0.365,-0.227,-0.122,0.366,0.244
-0.875,0.365,-0.227,-0.244,0.671,0.183
-0.872,0.365,-0.226,-0.549,0.671,0.061
-0.871,0.367,-0.226,-0.671,0.732,-0.061
-0.871,0.371,-0.225,-0.671,0.854,-0.061
-0.869,0.371,-0.224,-0.427,0.671,-0.183
-0.87,0.368,-0.225,-0.061,0.61,-0.183
-0.872,0.367,-0.225,-0.305,0.61,-0.244
-0.873,0.367,-0.226,-0.183,0.61,-0.244
-0.872,0.366,-0.226,-0.061,0.366,-0.061
-0.874,0.367,-0.227,-0.061,0.305,-0.122
-0.873,0.365,-0.226,-0.061,0.427,0.0
-0.872,0.365,-0.226,0.244,0.488,-0.122
-0.873,0.366,-0.225,0.122,0.427,-0.183
-0.872,0.364,-0.226,-0.061,0.366,-0.061
-0.872,0.365,-0.225,0.183,0.244,-0.122
-0.873,0.366,-0.226,0.244,0.244,-0.183
-0.872,0.365,-0.226,0.061,0.549,-0.061
-0.872,0.365,-0.227,0.122,0.488,0.061
-0.871,0.365,-0.226,0.122,0.366,-0.183
-0.873,0.366,-0.226,0.122,0.488,-0.183
-0.872,0.364,-0.225,-0.061,0.366,0.0
-0.872,0.365,-0.224,0.122,0.366,-0.183
-0.873,0.366,-0.226,0.549,0.366,-0.061
-0.871,0.365,-0.226,0.244,0.061,-0.061
-0.871,0.368,-0.226,0.122,0.305,-0.061
-0.871,0.367,-0.225,0.366,0.427,-0.061
-0.872,0.365,-0.225,0.244,0.305,-0.061
-0.873,0.364,-0.225,0.427,0.183,-0.183
-0.874,0.364,-0.227,0.305,0.183,-0.183
-0.872,0.365,-0.226,0.061,0.488,-0.122
-0.872,0.366,-0.227,0.183,0.488,-0.122
-0.871,0.365,-0.227,0.061,0.305,-0.122
-0.872,0.365,-0.226,0.0,0.488,-0.244
-0.872,0.363,-0.225,0.183,0.427,-0.061
-0.872,0.364,-0.226,0.0,0.305,-0.061
-0.874,0.365,-0.228,-0.061,0.305,0.0
-0.872,0.365,-0.226,-0.061,0.549,-0.183
-0.871,0.365,-0.226,-0.183,0.549,-0.366

-0.871,0.365,-0.226,-0.244,0.366,-0.244
-0.872,0.364,-0.227,-0.366,0.732,-0.122
-0.872,0.364,-0.227,-0.366,0.488,-0.244
-0.873,0.365,-0.227,-0.244,0.671,-0.183
-0.874,0.365,-0.226,-0.183,0.61,-0.061
-0.872,0.364,-0.228,-0.427,0.854,0.0
-0.871,0.365,-0.226,-0.427,0.549,-0.122
-0.872,0.365,-0.226,-0.427,0.549,-0.183
-0.873,0.366,-0.225,-0.488,0.366,-0.244
-0.87,0.366,-0.225,-0.244,0.305,-0.183
-0.873,0.364,-0.225,-0.061,0.488,0.0
-0.873,0.363,-0.226,0.0,0.549,-0.122
-0.871,0.364,-0.226,-0.488,0.549,-0.122
-0.871,0.367,-0.228,-0.61,0.732,-0.183
-0.871,0.368,-0.226,-0.305,0.549,-0.366
-0.871,0.366,-0.226,0.0,0.305,-0.183
-0.871,0.366,-0.224,0.244,0.427,-0.183
-0.873,0.363,-0.225,0.366,0.244,-0.061
-0.874,0.364,-0.226,0.122,0.122,-0.061
-0.871,0.367,-0.227,-0.183,0.427,-0.122
-0.872,0.365,-0.227,0.0,0.671,0.0
-0.872,0.365,-0.226,-0.061,0.549,0.244
-0.871,0.365,-0.226,0.061,0.427,0.0
-0.873,0.364,-0.225,0.122,0.366,0.244
-0.872,0.363,-0.225,0.244,0.305,0.183
-0.872,0.362,-0.226,0.549,0.488,0.305
-0.873,0.363,-0.228,-0.122,0.488,0.183
-0.872,0.364,-0.228,-0.061,0.488,-0.061
-0.871,0.364,-0.228,-0.305,0.488,0.061
-0.873,0.365,-0.227,-0.305,0.916,0.0
-0.873,0.364,-0.225,0.0,0.732,-0.061
-0.873,0.361,-0.225,0.061,0.549,0.061
-0.874,0.362,-0.225,-0.122,0.549,0.0
-0.873,0.363,-0.225,-0.244,0.366,0.0
-0.872,0.365,-0.227,-0.183,0.488,0.061
-0.871,0.365,-0.228,-0.366,0.671,0.183
-0.872,0.365,-0.227,-0.305,0.732,0.183
-0.871,0.366,-0.224,-0.183,0.671,0.122
-0.873,0.366,-0.224,-0.122,0.61,0.183
-0.872,0.365,-0.224,0.183,0.488,0.183
-0.873,0.364,-0.224,0.061,0.671,0.061
-0.872,0.365,-0.226,0.122,0.732,-0.122
-0.872,0.364,-0.227,-0.061,0.671,0.183
-0.872,0.364,-0.227,-0.244,0.732,0.305
-0.872,0.364,-0.227,-0.305,0.793,0.366
-0.872,0.365,-0.225,-0.366,0.854,0.305
-0.875,0.363,-0.224,-0.061,0.549,0.244
-0.875,0.363,-0.224,-0.122,0.61,0.244
-0.871,0.361,-0.223,-0.061,0.793,0.305
-0.872,0.36,-0.225,-0.183,0.732,0.366
-0.872,0.362,-0.226,-0.427,0.671,0.244
-0.872,0.363,-0.227,-0.427,0.671,0.061
-0.873,0.362,-0.225,-0.427,0.732,0.061
-0.876,0.363,-0.223,-0.732,0.977,0.122
-0.874,0.362,-0.223,-0.366,0.671,0.122
-0.876,0.363,-0.225,-0.61,0.61,0.122
-0.875,0.363,-0.225,-0.366,0.61,0.305
-0.874,0.363,-0.225,-0.183,0.671,0.183
-0.874,0.362,-0.226,-0.183,0.61,0.427
-0.872,0.361,-0.226,-0.366,0.732,0.427
-0.873,0.361,-0.227,-0.549,0.427,0.366
-0.875,0.361,-0.225,-0.61,0.488,0.427
-0.873,0.362,-0.226,-0.549,0.549,0.549
-0.872,0.36,-0.225,-0.122,0.366,0.549
-0.875,0.356,-0.226,0.305,0.366,0.671
-0.875,0.359,-0.226,-0.122,0.183,0.61
-0.875,0.358,-0.226,-0.244,0.366,0.366
-0.877,0.359,-0.226,-0.366,0.549,0.305
-0.876,0.359,-0.225,-0.732,0.732,0.305
-0.876,0.356,-0.225,-0.061,0.793,0.366
-0.875,0.357,-0.226,-0.305,0.61,0.305
-0.875,0.358,-0.225,-0.549,0.854,0.244
-0.875,0.356,-0.225,-0.549,0.793,0.183
-0.875,0.359,-0.225,-0.61,0.549,0.061
-0.877,0.36,-0.225,-0.549,0.549,0.183
-0.876,0.358,-0.225,-0.183,0.549,0.183
-0.875,0.358,-0.226,-0.183,0.427,0.183
-0.876,0.359,-0.226,-0.244,0.488,0.183
-0.874,0.359,-0.225,-0.305,0.488,0.305
-0.875,0.36,-0.225,0.0,0.183,0.305
-0.875,0.359,-0.226,0.427,0.244,0.244
-0.874,0.356,-0.226,0.61,0.305,0.427
-0.875,0.355,-0.227,0.427,0.183,0.366
-0.875,0.355,-0.227,0.305,0.427,0.305
-0.877,0.355,-0.227,0.061,0.366,0.427
-0.877,0.356,-0.227,0.122,0.427,0.183
-0.877,0.356,-0.226,0.183,0.488,0.305
-0.879,0.351,-0.227,0.549,0.427,0.488
-0.877,0.354,-0.222,0.244,0.427,0.366
-0.875,0.357,-0.225,-0.244,0.305,0.183
-0.877,0.36,-0.225,-0.183,0.61,0.183
-0.875,0.359,-0.225,-0.366,0.732,0.061
-0.878,0.356,-0.226,0.183,0.549,0.244
-0.878,0.354,-0.227,0.183,0.549,0.183
-0.876,0.354,-0.225,-0.061,0.671,0.305
-0.876,0.354,-0.226,0.061,0.427,0.366
-0.876,0.357,-0.224,-0.122,0.244,0.305
-0.877,0.359,-0.224,-0.061,0.488,0.183
-0.877,0.356,-0.224,0.183,0.427,0.0
-0.876,0.353,-0.227,0.183,0.488,0.183
-0.877,0.351,-0.227,0.061,0.61,0.0
-0.876,0.351,-0.227,-0.183,0.793,0.0
-0.879,0.355,-0.225,-0.671,0.732,0.0
-0.878,0.356,-0.224,-0.549,0.671,-0.183
-0.878,0.356,-0.223,-0.549,1.038,0.061
-0.877,0.355,-0.222,-0.244,0.732,0.061
-0.875,0.354,-0.224,-0.244,0.366,0.183
-0.877,0.356,-0.225,-0.305,0.427,0.122
-0.877,0.358,-0.226,0.183,0.244,0.122
-0.876,0.359,-0.224,0.122,0.488,0.122
-0.877,0.355,-0.224,0.305,0.366,0.183
-0.876,0.352,-0.224,0.366,0.549,0.366
-0.879,0.351,-0.226,0.0,0.427,0.061
-0.879,0.352,-0.225,0.061,0.488,0.244
-0.877,0.352,-0.225,-0.122,0.671,0.183
-0.877,0.352,-0.223,-0.061,0.244,0.244
-0.878,0.355,-0.224,0.061,0.122,0.305
-0.878,0.352,-0.223,0.061,0.244,0.366
-0.877,0.351,-0.227,0.122,0.122,0.305

-0.877,0.352,-0.225,-0.183,0.793,0.061
-0.878,0.352,-0.225,-0.244,0.732,-0.183
-0.878,0.351,-0.223,-0.61,0.793,-0.061
-0.88,0.35,-0.223,-0.305,0.61,0.0
-0.88,0.349,-0.223,-0.305,0.671,-0.061
-0.879,0.349,-0.223,0.0,0.183,-0.183
-0.88,0.351,-0.225,0.0,0.061,-0.244
-0.879,0.352,-0.226,0.0,0.183,-0.244
-0.878,0.35,-0.227,-0.183,0.488,-0.244
-0.879,0.351,-0.227,-0.427,0.549,-0.305
-0.879,0.354,-0.226,-0.732,0.671,-0.488
-0.879,0.353,-0.223,-0.671,0.732,-0.549
-0.877,0.354,-0.223,-0.427,0.61,-0.549
-0.877,0.354,-0.221,-0.305,0.549,-0.488
-0.876,0.356,-0.223,-0.183,0.427,-0.671
-0.876,0.356,-0.224,0.061,0.244,-0.549
-0.877,0.355,-0.227,0.061,0.366,-0.671
-0.876,0.355,-0.225,0.183,0.549,-0.427
-0.877,0.356,-0.224,0.0,0.366,-0.427
-0.876,0.353,-0.223,0.244,0.305,-0.549
-0.88,0.351,-0.223,0.549,0.0,-0.488
-0.878,0.35,-0.224,0.671,0.061,-0.305
-0.88,0.35,-0.227,0.488,-0.061,-0.427
-0.879,0.35,-0.228,0.305,0.0,-0.366
-0.877,0.353,-0.228,0.122,0.0,-0.366
-0.878,0.354,-0.227,0.061,0.549,-0.122
-0.875,0.357,-0.225,0.061,0.183,0.0
-0.874,0.359,-0.224,0.0,0.122,0.0
-0.875,0.359,-0.224,0.793,0.061,-0.122
-0.876,0.36,-0.224,0.427,0.305,-0.366
-0.875,0.357,-0.225,0.305,0.549,-0.244
-0.876,0.353,-0.226,0.061,0.732,-0.427
-0.877,0.351,-0.228,-0.305,0.488,-0.549
-0.879,0.35,-0.227,-0.427,0.549,-0.488
-0.878,0.352,-0.226,-0.977,1.038,-0.61
-0.879,0.351,-0.224,-1.038,0.916,-0.671
-0.878,0.352,-0.225,-1.038,1.038,-0.671
-0.877,0.353,-0.224,-1.16,0.977,-0.671
-0.875,0.357,-0.224,-0.916,0.854,-0.549
-0.876,0.357,-0.223,-0.793,0.732,-0.671
-0.878,0.358,-0.222,0.366,0.671,-0.671
-0.873,0.361,-0.223,-0.305,0.732,-0.549
-0.875,0.362,-0.223,-0.549,0.427,-0.793
-0.873,0.362,-0.223,-0.488,0.427,-0.793
-0.876,0.356,-0.22,-0.244,0.671,-0.671
-0.877,0.357,-0.222,-0.305,0.488,-0.732
-0.877,0.357,-0.223,-0.244,0.366,-0.671
-0.877,0.357,-0.225,-0.122,0.366,-0.488
-0.876,0.356,-0.226,0.183,0.366,-0.305
-0.876,0.357,-0.225,0.244,0.244,-0.305
-0.877,0.357,-0.226,0.427,0.183,-0.183
-0.875,0.356,-0.224,0.366,0.427,-0.061
-0.875,0.357,-0.224,0.244,0.366,-0.122
-0.875,0.359,-0.224,0.122,0.183,-0.122
-0.874,0.36,-0.224,-0.061,0.244,-0.305
-0.876,0.359,-0.226,0.183,0.122,-0.305
-0.877,0.357,-0.225,0.061,0.305,-0.183
-0.876,0.357,-0.226,0.061,0.122,-0.183
-0.876,0.359,-0.226,-0.061,0.061,-0.244
-0.875,0.36,-0.227,0.244,0.061,-0.244
-0.872,0.359,-0.225,-0.061,0.183,-0.305
-0.874,0.359,-0.225,-0.122,0.122,-0.305
-0.874,0.359,-0.225,0.0,0.244,-0.488
-0.877,0.354,-0.226,0.061,0.183,-0.244
-0.877,0.356,-0.226,0.244,0.122,-0.305
-0.875,0.355,-0.228,0.061,0.122,-0.122
-0.877,0.356,-0.227,-0.061,0.0,-0.244
-0.877,0.357,-0.227,-0.122,0.122,-0.122
-0.877,0.358,-0.227,-0.183,0.244,-0.305
-0.875,0.357,-0.227,-0.427,0.244,-0.244
-0.876,0.356,-0.225,-0.244,0.305,-0.061
-0.875,0.356,-0.227,-0.244,0.488,-0.183
-0.876,0.356,-0.227,-0.366,0.488,0.0
-0.876,0.357,-0.226,-0.366,0.427,-0.061
-0.875,0.357,-0.226,-0.183,0.61,0.0
-0.876,0.358,-0.227,-0.366,0.488,-0.122
-0.875,0.358,-0.228,-0.549,0.366,-0.122
-0.874,0.358,-0.227,-0.488,0.366,-0.183
-0.875,0.359,-0.228,-0.488,0.427,-0.122
-0.875,0.357,-0.227,-0.549,0.61,-0.061
-0.876,0.355,-0.227,-0.061,0.183,0.061
-0.876,0.356,-0.228,-0.244,0.183,-0.122
-0.875,0.356,-0.228,-0.244,0.427,0.061
-0.874,0.356,-0.228,-0.488,0.305,0.061
-0.875,0.355,-0.229,-0.244,0.488,-0.061
-0.875,0.355,-0.23,-0.427,0.244,-0.061
-0.876,0.354,-0.231,0.0,0.366,0.0
-0.88,0.349,-0.228,0.122,0.183,0.244
-0.883,0.346,-0.227,-0.061,0.61,0.488
-0.882,0.348,-0.222,0.305,0.61,0.488
-0.877,0.353,-0.223,0.305,-0.061,0.488
-0.874,0.354,-0.226,0.366,-0.061,0.549
-0.875,0.363,-0.232,0.183,0.244,0.244
-0.871,0.362,-0.232,-0.549,1.099,0.244
-0.87,0.364,-0.231,-0.549,1.343,0.061
-0.872,0.371,-0.225,-0.61,1.16,0.122
-0.873,0.369,-0.223,-0.183,0.854,0.122
-0.873,0.364,-0.224,1.16,0.0,0.061
-0.876,0.356,-0.226,1.343,-0.244,0.061
-0.88,0.351,-0.229,1.648,-0.305,0.183
-0.878,0.349,-0.23,1.099,-0.305,0.183
-0.879,0.349,-0.231,-0.366,0.305,0.122
-0.877,0.354,-0.229,-0.977,0.671,-0.122
-0.876,0.357,-0.226,-0.977,0.427,-0.183
-0.874,0.359,-0.226,-0.427,0.366,-0.061
-0.875,0.359,-0.226,-0.305,0.183,-0.183
-0.877,0.353,-0.229,0.427,0.0,-0.183
-0.876,0.352,-0.231,0.427,-0.061,-0.244
-0.879,0.349,-0.231,0.122,0.0,0.0
-0.879,0.349,-0.232,-0.122,0.366,0.0
-0.876,0.355,-0.231,-1.038,0.427,-0.122
-0.875,0.357,-0.23,-1.099,0.671,-0.122
-0.873,0.36,-0.229,-0.122,0.61,-0.122
-0.873,0.358,-0.229,-0.061,0.61,-0.244
-0.875,0.357,-0.227,0.061,0.549,0.0
-0.875,0.355,-0.228,0.61,0.244,0.061
-0.878,0.352,-0.23,0.488,0.061,0.0
-0.877,0.351,-0.229,0.549,0.366,-0.061
-0.879,0.351,-0.231,0.305,0.366,-0.183

-0.876,0.353,-0.229,-0.671,0.732,-0.366
-0.876,0.355,-0.23,-1.038,0.854,-0.488
-0.877,0.354,-0.229,-0.732,0.854,-0.488
-0.876,0.354,-0.229,-0.61,0.793,-0.549
-0.878,0.353,-0.229,-0.244,0.549,-0.61
-0.878,0.354,-0.229,-0.061,0.427,-0.488
-0.878,0.351,-0.229,0.122,0.366,-0.549
-0.875,0.352,-0.229,-0.061,0.366,-0.366
-0.876,0.354,-0.229,-0.244,0.305,-0.427
-0.875,0.357,-0.228,-0.244,0.366,-0.549
-0.875,0.356,-0.23,-0.122,0.244,-0.61
-0.878,0.358,-0.231,-0.061,0.427,-0.488
-0.874,0.356,-0.231,0.244,0.488,-0.549
-0.873,0.356,-0.228,0.061,0.549,-0.427
-0.876,0.354,-0.229,0.0,0.488,-0.366
-0.876,0.356,-0.23,0.183,0.183,-0.488
-0.876,0.358,-0.229,0.305,0.305,-0.61
-0.876,0.358,-0.23,0.427,0.427,-0.488
-0.874,0.357,-0.23,0.061,0.549,-0.366
-0.872,0.357,-0.231,0.0,0.671,-0.488
-0.876,0.355,-0.229,0.0,0.549,-0.305
-0.877,0.356,-0.229,0.61,0.427,-0.061
-0.876,0.356,-0.228,0.61,0.366,-0.183
-0.875,0.357,-0.229,0.366,0.427,-0.244
-0.875,0.356,-0.23,0.61,0.366,-0.366
-0.875,0.355,-0.231,0.488,0.183,-0.305
-0.876,0.355,-0.231,0.366,0.305,-0.427
-0.877,0.355,-0.23,0.366,0.427,-0.183
-0.876,0.354,-0.23,0.183,0.488,-0.305
-0.876,0.356,-0.228,0.061,0.549,-0.366
-0.875,0.356,-0.23,0.183,0.671,-0.244
-0.874,0.358,-0.229,0.061,0.488,-0.488
-0.875,0.359,-0.229,-0.122,0.488,-0.488
-0.875,0.358,-0.23,0.122,0.488,-0.366
-0.874,0.358,-0.23,-0.061,0.793,-0.427
-0.875,0.357,-0.23,-0.061,0.793,-0.488
-0.875,0.357,-0.229,-0.061,0.793,-0.366
-0.875,0.357,-0.227,-0.122,0.732,-0.488
-0.906,0.36,-0.228,-0.183,0.732,-0.366
-0.874,0.358,-0.226,-0.183,0.793,-0.366
-0.874,0.359,-0.227,0.061,0.61,-0.305
-0.873,0.358,-0.229,0.061,0.671,-0.366
-0.874,0.359,-0.228,-0.427,0.61,-0.488
-0.874,0.359,-0.228,-0.427,0.732,-0.427
-0.875,0.359,-0.227,-0.488,0.671,-0.549
-0.875,0.357,-0.228,-0.671,0.793,-0.366
-0.875,0.357,-0.227,-0.61,0.671,-0.366
-0.875,0.359,-0.227,-0.549,0.549,-0.244
-0.875,0.358,-0.226,-0.427,0.488,-0.122
-0.877,0.356,-0.227,-0.061,0.366,-0.305
-0.874,0.359,-0.229,-0.732,0.854,0.061
-0.874,0.36,-0.229,-0.427,0.61,-0.061
-0.873,0.361,-0.229,-0.305,0.549,0.0
-0.874,0.359,-0.228,-0.366,0.854,0.061
-0.875,0.359,-0.227,-0.366,0.732,0.0
-0.874,0.357,-0.228,-0.366,0.61,-0.061
-0.874,0.358,-0.229,-0.488,0.671,-0.061
-0.875,0.357,-0.229,-0.244,0.793,0.183
-0.875,0.358,-0.229,-0.427,0.793,0.183
-0.875,0.361,-0.227,-0.549,0.793,0.183
-0.873,0.36,-0.227,-0.61,0.977,0.183
-0.872,0.36,-0.227,-0.366,0.732,0.183
-0.875,0.359,-0.226,-0.366,0.61,0.183
-0.877,0.356,-0.226,-0.183,0.671,0.122
-0.876,0.355,-0.226,0.0,0.549,0.183
-0.875,0.353,-0.227,0.0,0.366,0.244
-0.876,0.355,-0.228,-0.305,0.366,0.183
-0.876,0.356,-0.228,-0.366,0.305,0.122
-0.875,0.356,-0.228,-0.549,0.427,0.122
-0.875,0.357,-0.229,-0.366,0.366,0.244
-0.874,0.357,-0.228,-0.549,0.549,0.244
-0.876,0.358,-0.226,-0.122,0.549,0.061
-0.876,0.355,-0.228,-0.122,0.366,-0.061
-0.876,0.354,-0.229,0.0,0.244,0.244
-0.877,0.355,-0.228,0.122,0.122,0.305
-0.875,0.357,-0.23,0.0,0.366,0.305
-0.874,0.356,-0.23,-0.061,0.427,0.305
-0.876,0.355,-0.228,0.488,0.305,0.671
-0.876,0.357,-0.229,0.061,0.061,0.427
-0.875,0.359,-0.228,0.488,0.122,0.427
-0.875,0.352,-0.23,0.61,0.305,0.366
-0.876,0.349,-0.23,0.732,0.244,0.549
-0.877,0.352,-0.231,0.183,0.0,0.305
-0.878,0.354,-0.232,0.061,0.122,0.244
-0.877,0.354,-0.23,-0.061,0.244,0.305
-0.875,0.353,-0.229,-0.061,0.488,0.488
-0.878,0.352,-0.231,0.061,0.244,0.427
-0.876,0.351,-0.229,0.061,0.305,0.366
-0.878,0.351,-0.231,-0.305,0.366,0.366
-0.878,0.352,-0.229,0.244,0.244,0.488
-0.878,0.352,-0.23,0.305,0.183,0.244
-0.877,0.35,-0.23,-0.061,0.488,0.488
-0.876,0.352,-0.229,-0.488,0.549,0.366
-0.875,0.355,-0.229,-0.244,0.671,0.244
-0.875,0.355,-0.23,-0.427,0.671,0.183
-0.876,0.353,-0.23,-0.122,0.427,0.244
-0.877,0.352,-0.23,-0.061,0.61,0.122
-0.878,0.351,-0.23,-0.244,0.854,0.122
-0.879,0.348,-0.232,-0.305,0.732,0.122
-0.878,0.349,-0.231,-0.549,0.732,0.244
-0.878,0.35,-0.23,-0.549,0.854,0.244
-0.878,0.352,-0.229,-0.305,0.732,0.061
-0.877,0.352,-0.229,-0.61,0.916,0.0
-0.877,0.351,-0.23,-0.366,0.61,0.061
-0.876,0.35,-0.231,-0.305,0.61,-0.122
-0.878,0.349,-0.232,-0.427,0.671,0.0
-0.878,0.35,-0.231,-0.549,0.671,-0.183
-0.878,0.351,-0.23,-0.854,0.854,-0.061
-0.878,0.35,-0.23,-0.61,0.61,-0.061
-0.877,0.35,-0.228,-0.305,0.732,0.0
-0.879,0.349,-0.229,-0.488,0.793,0.0
-0.878,0.348,-0.229,-0.488,0.854,-0.061
-0.879,0.349,-0.229,-0.488,0.732,-0.061
-0.879,0.349,-0.229,-0.671,0.732,0.0
-0.879,0.347,-0.23,-0.549,0.732,0.0
-0.879,0.347,-0.231,-0.427,0.916,0.122
-0.879,0.346,-0.229,-0.305,0.793,0.183
-0.879,0.346,-0.229,-0.549,0.671,0.366
-0.878,0.35,-0.229,-0.549,0.671,0.305

-0.877,0.352,-0.229,-0.61,0.732,-0.122
-0.876,0.354,-0.23,-0.793,0.732,-0.244
-0.875,0.354,-0.23,-0.671,0.732,-0.244
-0.875,0.353,-0.229,-0.366,0.793,-0.244
-0.878,0.353,-0.23,-0.244,0.671,-0.366
-0.878,0.351,-0.228,-0.244,0.61,-0.488
-0.879,0.348,-0.228,0.061,0.549,-0.061
-0.879,0.349,-0.229,0.183,0.488,-0.061
-0.878,0.349,-0.228,0.183,0.305,-0.122
-0.878,0.349,-0.229,-0.244,0.488,-0.244
-0.878,0.349,-0.229,-0.061,0.305,-0.244
-0.878,0.349,-0.229,0.183,0.488,-0.183
-0.879,0.348,-0.229,-0.183,0.671,-0.061
-0.878,0.349,-0.228,-0.366,0.549,-0.244
-0.877,0.353,-0.227,-0.366,0.61,-0.366
-0.877,0.354,-0.227,-0.244,0.488,-0.366
-0.876,0.354,-0.228,0.305,0.366,-0.305
-0.875,0.353,-0.229,0.244,0.366,-0.244
-0.877,0.351,-0.231,0.427,0.427,-0.183
-0.878,0.348,-0.23,0.61,0.488,-0.122
-0.879,0.348,-0.231,0.427,0.0,-0.183
-0.879,0.349,-0.232,0.366,0.0,-0.183
-0.879,0.348,-0.23,0.0,0.732,-0.061
-0.878,0.349,-0.23,0.0,0.671,-0.061
-0.878,0.351,-0.228,-0.183,0.671,-0.244
-0.876,0.351,-0.228,0.061,0.366,-0.427
-0.878,0.351,-0.229,0.122,0.183,-0.244
-0.878,0.352,-0.228,0.061,0.488,-0.366
-0.877,0.35,-0.228,0.061,0.61,-0.183
-0.877,0.352,-0.23,-0.366,0.305,-0.488
-0.878,0.351,-0.229,-0.183,0.366,-0.488
-0.877,0.35,-0.23,0.0,0.61,-0.305
-0.878,0.35,-0.23,0.061,0.305,-0.427
-0.879,0.35,-0.231,-0.061,0.244,-0.488
-0.88,0.349,-0.231,-0.122,0.427,-0.488
-0.876,0.349,-0.229,-0.183,0.549,-0.671
-0.877,0.349,-0.229,-0.305,0.488,-0.549
-0.877,0.353,-0.232,-0.366,0.549,-0.671
-0.876,0.356,-0.229,-0.244,0.671,-0.549
-0.877,0.354,-0.228,0.244,0.671,-0.671
-0.877,0.35,-0.229,0.183,0.61,-0.732
-0.878,0.348,-0.23,0.488,0.366,-0.61
-0.878,0.347,-0.23,0.366,0.244,-0.671
-0.88,0.348,-0.232,0.0,0.244,-0.61
-0.879,0.348,-0.231,-0.061,0.488,-0.549
-0.878,0.348,-0.231,0.0,0.244,-0.549
-0.879,0.347,-0.232,0.244,0.366,-0.305
-0.878,0.35,-0.229,0.061,0.305,-0.061
-0.878,0.352,-0.229,0.061,0.061,-0.244
-0.876,0.351,-0.228,0.793,0.061,-0.427
-0.876,0.349,-0.229,0.732,0.0,-0.488
-0.878,0.349,-0.231,0.793,0.061,-0.488
-0.875,0.361,-0.231,-0.305,0.732,-0.671
-0.871,0.361,-0.23,0.122,1.16,-0.732
-0.875,0.35,-0.228,0.854,0.366,-0.61
-0.881,0.347,-0.227,0.793,0.122,-0.671
-0.879,0.346,-0.229,0.427,0.366,-0.305
-0.878,0.349,-0.229,0.244,0.366,-0.366
-0.874,0.36,-0.234,-0.671,0.793,-0.671
-0.871,0.361,-0.229,-0.488,0.793,-0.61
-0.872,0.361,-0.229,-0.305,0.732,-0.732
-0.875,0.358,-0.229,0.183,0.549,-0.732
-0.874,0.358,-0.229,0.122,0.427,-0.732
-0.874,0.357,-0.231,0.366,0.366,-0.61
-0.875,0.355,-0.231,0.061,0.183,-0.793
-0.876,0.353,-0.233,0.061,0.305,-0.916
-0.876,0.352,-0.233,0.0,0.671,-0.793
-0.875,0.352,-0.233,-0.549,0.671,-0.854
-0.878,0.354,-0.229,-0.61,0.732,-0.671
-0.876,0.355,-0.231,0.061,0.732,-0.549
-0.877,0.356,-0.23,-0.183,0.671,-0.61
-0.875,0.355,-0.23,-0.366,0.732,-0.61
-0.874,0.357,-0.231,-0.732,0.854,-0.793
-0.872,0.358,-0.231,-0.793,0.916,-0.854
-0.873,0.362,-0.231,-0.732,0.916,-0.732
-0.874,0.362,-0.228,-0.366,0.977,-0.61
-0.874,0.361,-0.227,-0.244,0.977,-0.854
-0.875,0.355,-0.228,0.183,0.793,-0.549
-0.875,0.358,-0.229,0.0,0.732,-0.61
-0.876,0.354,-0.231,0.427,0.549,-0.427
-0.874,0.357,-0.231,-0.366,0.549,-0.549
-0.874,0.358,-0.23,-0.183,0.732,-0.488
-0.875,0.36,-0.229,0.0,0.671,-0.366
-0.875,0.357,-0.229,0.244,0.793,-0.549
-0.875,0.356,-0.229,0.61,0.488,-0.244
-0.875,0.357,-0.23,0.305,0.366,-0.305
-0.874,0.36,-0.23,0.122,0.305,-0.549
-0.873,0.36,-0.229,-0.061,0.61,-0.488
-0.874,0.357,-0.23,0.427,0.549,-0.488
-0.875,0.357,-0.229,0.427,0.488,-0.427
-0.874,0.356,-0.229,0.366,0.488,0.0
-0.875,0.357,-0.228,0.427,0.244,0.122
-0.875,0.36,-0.227,0.427,0.366,-0.061
-0.874,0.36,-0.229,0.305,0.366,-0.183
-0.874,0.36,-0.231,0.61,0.549,-0.061
-0.875,0.359,-0.231,0.549,0.488,0.183
-0.873,0.357,-0.229,0.305,0.366,0.122
-0.872,0.36,-0.23,0.488,0.488,0.122
-0.874,0.359,-0.228,0.549,0.488,0.183
-0.874,0.359,-0.227,0.671,0.488,0.122
-0.874,0.359,-0.226,0.549,0.427,0.061
-0.874,0.357,-0.229,0.427,0.488,0.122
-0.874,0.356,-0.23,0.183,0.488,-0.061
-0.876,0.354,-0.23,0.366,0.488,0.0
-0.876,0.355,-0.229,0.427,0.488,0.0
-0.876,0.354,-0.229,0.122,0.549,0.122
-0.876,0.357,-0.229,-0.122,0.488,0.061
-0.874,0.358,-0.228,-0.061,0.488,0.0
-0.875,0.359,-0.228,0.0,0.61,0.0
-0.876,0.358,-0.228,0.122,0.427,0.061
-0.875,0.357,-0.229,0.061,0.488,0.0
-0.874,0.358,-0.23,-0.061,0.427,0.0
-0.875,0.358,-0.228,-0.183,0.549,-0.061
-0.875,0.359,-0.228,-0.061,0.671,-0.061
-0.875,0.359,-0.227,0.0,0.854,0.0
-0.875,0.357,-0.226,-0.122,0.61,-0.122
-0.875,0.358,-0.226,-0.305,0.732,0.0
-0.877,0.361,-0.228,-0.183,0.732,-0.244
-0.874,0.358,-0.226,-0.061,0.793,-0.122

-0.875,0.356,-0.227,-0.305,0.671,-0.122
-0.875,0.357,-0.228,-0.549,0.61,-0.244
-0.875,0.358,-0.227,-0.61,0.916,-0.305
-0.874,0.356,-0.228,-0.549,1.038,-0.183
-0.875,0.356,-0.227,-0.549,0.732,-0.183
-0.876,0.357,-0.228,-0.61,0.488,-0.244
-0.876,0.356,-0.227,-0.122,0.305,0.0
-0.876,0.356,-0.228,-0.122,0.488,-0.122
-0.876,0.354,-0.227,-0.122,0.488,-0.122
-0.876,0.357,-0.228,-0.427,0.854,-0.061
-0.875,0.356,-0.227,-0.488,0.549,0.0
-0.876,0.356,-0.228,-0.366,0.793,0.061
-0.875,0.356,-0.227,-0.183,0.549,0.061
-0.877,0.354,-0.226,-0.061,0.549,0.183
-0.879,0.354,-0.227,0.0,0.305,0.244
-0.878,0.354,-0.228,-0.061,0.366,0.366
-0.875,0.356,-0.227,-0.183,0.549,0.488
-0.874,0.357,-0.228,-0.061,0.427,0.183
-0.873,0.357,-0.227,-0.061,0.305,0.305
-0.876,0.357,-0.226,-0.122,0.61,0.244
-0.876,0.357,-0.226,-0.061,0.549,0.244
-0.876,0.357,-0.226,-0.061,0.305,0.183
-0.877,0.355,-0.226,-0.061,0.427,0.366
-0.876,0.356,-0.226,-0.061,0.244,0.183
-0.876,0.356,-0.227,0.0,0.366,0.244
-0.877,0.357,-0.229,0.061,0.244,-0.061
-0.876,0.357,-0.228,0.122,0.305,0.122
-0.875,0.356,-0.228,-0.061,0.122,0.183
-0.878,0.355,-0.23,0.305,0.061,0.244
-0.877,0.355,-0.229,0.061,0.305,0.183
-0.877,0.352,-0.229,0.427,0.183,0.122
-0.877,0.35,-0.229,0.183,0.244,0.183
-0.878,0.353,-0.229,-0.122,0.244,0.183
-0.876,0.354,-0.229,-0.061,0.305,0.183
-0.876,0.354,-0.228,-0.122,0.244,0.061
-0.876,0.353,-0.229,0.122,0.305,0.0
-0.877,0.353,-0.23,-0.122,0.488,0.0
-0.878,0.353,-0.23,-0.183,0.488,-0.061
-0.876,0.353,-0.229,-0.122,0.488,0.0
-0.875,0.354,-0.23,-0.244,0.427,-0.061
-0.876,0.354,-0.229,-0.061,0.366,-0.122
-0.877,0.353,-0.228,-0.061,0.244,-15.625
-0.875,0.353,-0.229,0.061,0.427,0.061
-0.876,0.353,-0.23,-0.122,0.427,0.061
-0.876,0.352,-0.23,0.0,0.366,-0.183
-0.876,0.352,-0.231,-0.183,0.366,-0.305
-0.876,0.352,-0.228,-0.427,0.61,-0.122
-0.878,0.353,-0.23,-0.549,0.549,-0.122
-0.876,0.354,-0.226,-0.549,0.61,-0.183
-0.876,0.354,-0.228,-0.427,0.793,-0.061
-0.876,0.354,-0.228,-0.244,0.671,-0.122
-0.875,0.356,-0.228,-0.366,0.427,-0.244
-0.876,0.356,-0.229,-0.122,0.488,-0.244
-0.877,0.355,-0.231,0.061,0.061,-0.122
-0.876,0.354,-0.23,-0.061,0.427,-0.122
-0.876,0.354,-0.229,-0.244,0.671,-0.061
-0.876,0.355,-0.229,-0.061,0.488,-0.366
-0.875,0.356,-0.227,-0.183,0.305,-0.366
-0.876,0.358,-0.228,-0.183,0.183,-0.183
-0.876,0.356,-0.228,-0.122,0.488,-0.061
-0.876,0.352,-0.233,0.183,0.305,-0.244
-0.876,0.349,-0.232,0.183,0.427,-0.183
-0.88,0.348,-0.23,-0.122,0.488,0.0
-0.881,0.348,-0.231,-0.305,0.488,-0.305
-0.878,0.355,-0.228,-0.427,0.427,-0.244
-0.876,0.355,-0.228,-0.427,0.549,-0.244
-0.875,0.354,-0.228,0.305,0.427,-0.183
-0.875,0.354,-0.232,0.244,0.183,-0.244
-0.877,0.353,-0.231,0.366,0.305,-0.122
-0.876,0.353,-0.232,0.0,0.244,-0.183
-0.877,0.353,-0.231,0.061,0.427,-0.183
-0.877,0.352,-0.229,-0.061,0.549,-0.061
-0.877,0.352,-0.229,0.366,0.61,-0.244
-0.877,0.353,-0.229,0.061,0.488,-0.427
-0.876,0.354,-0.231,0.0,0.732,-0.244
-0.875,0.355,-0.231,0.183,0.427,-0.366
-0.876,0.35,-0.23,0.732,0.488,-0.183
-0.876,0.351,-0.23,0.305,0.427,-0.244
-0.876,0.352,-0.229,0.305,0.427,-0.244
-0.877,0.353,-0.229,0.244,0.305,-0.366
-0.876,0.353,-0.229,0.244,0.549,-0.305
-0.876,0.354,-0.229,0.0,0.61,-0.244
-0.877,0.354,-0.227,0.366,0.549,-0.122
-0.876,0.354,-0.228,0.305,0.488,-0.244
-0.876,0.352,-0.229,0.305,0.488,-0.366
-0.876,0.353,-0.231,0.244,0.732,-0.366
-0.876,0.354,-0.231,-0.122,0.732,-0.305
-0.876,0.354,-0.229,0.0,0.732,-0.122
-0.876,0.356,-0.228,0.183,0.488,-0.244
-0.878,0.354,-0.229,0.305,0.488,-0.305
-0.875,0.355,-0.23,0.244,0.488,-0.244
-0.875,0.355,-0.231,0.183,0.488,-0.122
-0.878,0.352,-0.229,0.061,0.549,-0.183
-0.878,0.353,-0.228,0.0,0.671,-0.244
-0.876,0.353,-0.225,0.0,0.61,-0.244
-0.876,0.356,-0.227,0.061,0.488,-0.183
-0.874,0.358,-0.229,0.122,0.549,-0.122
-0.875,0.358,-0.228,0.244,0.61,-0.183
-0.876,0.356,-0.23,0.244,0.671,-0.244
-0.875,0.355,-0.228,0.122,0.793,-0.244
-0.876,0.353,-0.229,0.0,0.793,-0.183
-0.878,0.352,-0.228,0.122,0.61,-0.183
-0.879,0.352,-0.226,0.305,0.549,-0.061
-0.877,0.352,-0.229,0.061,0.61,-0.061
-0.876,0.353,-0.229,0.183,0.488,-0.122
-0.876,0.355,-0.228,0.061,0.61,-0.244
-0.876,0.354,-0.227,0.0,0.61,-0.244
-0.877,0.354,-0.227,0.305,0.61,-0.122
-0.877,0.355,-0.226,0.244,0.488,-0.183
-0.877,0.356,-0.225,0.183,0.671,-0.122
-0.878,0.355,-0.227,-0.061,0.916,-0.244
-0.876,0.356,-0.227,-0.183,0.488,-0.427
-0.875,0.357,-0.228,-0.061,0.488,-0.427
-0.876,0.357,-0.227,-0.061,0.732,-0.183
-0.876,0.356,-0.227,0.0,0.671,-0.244
-0.877,0.356,-0.225,0.122,0.61,-0.122
-0.876,0.355,-0.224,0.366,0.61,-0.244
-0.876,0.355,-0.229,0.244,0.488,-0.183
-0.875,0.355,-0.228,0.061,0.61,-0.061

-0.877,0.356,-0.226,0.366,0.488,-0.061
-0.877,0.355,-0.226,0.244,0.488,0.0
-0.877,0.354,-0.227,0.427,0.305,-0.122
-0.877,0.354,-0.227,0.183,0.427,-0.061
-0.877,0.353,-0.226,0.0,0.671,0.0
-0.876,0.353,-0.227,0.061,0.549,-0.061
-0.876,0.353,-0.227,0.061,0.549,-0.122
-0.876,0.354,-0.226,0.183,0.427,0.0
-0.876,0.356,-0.226,-0.122,0.549,0.0
-0.877,0.355,-0.227,0.183,0.549,0.0
-0.877,0.354,-0.226,0.366,0.671,-0.061
-0.876,0.353,-0.226,0.061,0.732,-0.061
-0.876,0.354,-0.226,0.0,0.427,-0.122
-0.876,0.356,-0.227,-0.122,0.488,-0.183
-0.876,0.357,-0.225,0.183,0.61,-0.183
-0.878,0.356,-0.225,0.305,0.671,-0.122
-0.875,0.354,-0.225,-0.122,0.671,-0.244
-0.876,0.356,-0.226,-0.122,0.732,-0.244
-0.876,0.355,-0.226,0.061,0.427,-0.122
-0.877,0.354,-0.225,-0.061,0.427,-0.122
-0.877,0.355,-0.225,0.0,0.793,-0.122
-0.877,0.353,-0.225,0.061,0.549,-0.183
-0.876,0.353,-0.226,-0.122,0.671,-0.122
-0.877,0.353,-0.227,-0.427,0.916,-0.183
-0.876,0.353,-0.227,-0.427,0.61,-0.244
-0.877,0.354,-0.226,-0.305,0.854,-0.061
-0.877,0.353,-0.225,-0.305,0.793,-0.122
-0.876,0.354,-0.226,-0.366,0.793,0.0
-0.876,0.355,-0.223,-0.305,0.732,-0.061
-0.878,0.356,-0.225,-0.427,0.549,0.0
-0.877,0.354,-0.227,-0.488,0.549,0.0
-0.876,0.356,-0.223,-0.366,0.671,0.061
-0.876,0.357,-0.226,-0.549,0.793,-0.061
-0.876,0.36,-0.224,-0.977,0.854,-0.122
-0.875,0.359,-0.223,-0.549,0.793,-0.061
-0.876,0.357,-0.223,-0.183,0.671,-0.122
-0.876,0.356,-0.225,-0.427,0.732,-0.183
-0.878,0.356,-0.224,-0.183,0.61,-0.061
-0.876,0.354,-0.223,-0.488,0.61,-0.244
-0.877,0.355,-0.223,-0.549,0.671,0.061
-0.876,0.356,-0.222,-0.488,0.61,0.061
-0.877,0.355,-0.223,-0.183,0.366,-0.061
-0.877,0.354,-0.223,-0.061,0.366,-0.122
-0.879,0.355,-0.224,-0.244,0.244,0.0
-0.879,0.354,-0.223,0.0,0.488,0.061
-0.877,0.355,-0.224,-0.244,0.366,0.061
-0.877,0.355,-0.224,-0.305,0.305,0.122
-0.878,0.355,-0.224,0.061,-0.061,0.183
-0.876,0.355,-0.226,0.244,0.061,0.305
-0.876,0.356,-0.227,0.0,0.0,0.244
-0.875,0.354,-0.227,0.244,0.122,0.305
-0.876,0.354,-0.227,0.305,0.0,0.305
-0.878,0.354,-0.228,0.366,-0.122,0.366
-0.878,0.351,-0.226,0.61,-0.183,0.366
-0.878,0.349,-0.228,0.671,0.0,0.427
-0.879,0.35,-0.227,0.488,0.244,0.427
-0.876,0.351,-0.229,0.244,0.305,0.122
-0.877,0.351,-0.227,0.244,0.366,0.061
-0.877,0.352,-0.227,0.061,0.305,0.0
-0.878,0.35,-0.228,0.122,0.244,0.061
-0.878,0.349,-0.229,0.122,0.366,0.183
-0.876,0.35,-0.227,-0.244,0.427,0.183
-0.876,0.353,-0.228,-0.366,0.183,0.061
-0.875,0.356,-0.227,-0.183,0.244,0.0
-0.876,0.353,-0.228,0.122,0.488,0.061
-0.878,0.352,-0.228,0.122,0.549,-0.183
-0.878,0.352,-0.23,0.0,0.61,-0.122
-0.877,0.35,-0.228,-0.122,0.366,-0.061
-0.879,0.349,-0.227,-0.122,0.305,-0.061
-0.878,0.349,-0.228,-0.061,0.427,0.0
-0.878,0.349,-0.229,-0.061,0.549,0.244
-0.877,0.35,-0.23,-0.183,0.488,0.0
-0.877,0.351,-0.229,-0.061,0.549,0.122
-0.878,0.349,-0.227,-0.183,0.671,0.122
-0.879,0.35,-0.226,-0.183,0.488,0.0
-0.878,0.35,-0.227,-0.366,0.916,-0.122
-0.877,0.35,-0.228,-0.427,0.854,-0.183
-0.877,0.353,-0.227,-0.427,0.854,-0.061
-0.878,0.354,-0.228,-0.488,0.732,-0.061
-0.877,0.353,-0.227,0.061,0.488,0.0
-0.878,0.353,-0.228,0.061,0.793,-0.122
-0.878,0.351,-0.226,0.122,0.549,-0.061
-0.877,0.351,-0.226,0.122,0.488,-0.122
-0.879,0.352,-0.227,0.061,0.732,-0.183
-0.879,0.35,-0.226,0.061,0.549,-0.122
-0.878,0.35,-0.225,0.122,0.549,-0.061
-0.878,0.35,-0.227,0.061,0.488,-0.122
-0.88,0.351,-0.227,0.0,0.366,-0.183
-0.878,0.351,-0.226,-0.061,0.61,-0.122
-0.879,0.351,-0.227,-0.122,0.61,-0.183
-0.877,0.351,-0.228,-0.061,0.793,-0.183
-0.878,0.352,-0.224,0.0,0.488,-0.122
-0.878,0.354,-0.224,0.061,0.305,-0.122
-0.878,0.352,-0.225,0.427,0.549,-0.183
-0.879,0.352,-0.225,0.549,0.488,-0.122
-0.879,0.351,-0.227,0.671,0.427,-0.061
-0.877,0.349,-0.227,0.671,0.244,0.0
-0.878,0.349,-0.227,0.366,0.366,-0.061
-0.879,0.35,-0.225,0.244,0.488,0.061
-0.88,0.351,-0.226,0.61,0.366,-0.183
-0.879,0.349,-0.225,0.427,0.488,-0.122
-0.879,0.349,-0.226,0.366,0.305,-0.122
-0.878,0.351,-0.227,0.061,0.488,-0.061
-0.876,0.352,-0.226,-0.183,0.671,-0.183
-0.878,0.352,-0.225,-0.061,0.488,-0.488
-0.878,0.348,-0.226,-0.061,0.916,-0.427
-0.88,0.346,-0.226,-0.061,0.793,-0.305
-0.88,0.345,-0.227,-0.244,0.549,-0.488
-0.881,0.344,-0.228,-0.427,0.549,-0.549
-0.881,0.345,-0.228,-0.732,0.793,-0.488
-0.88,0.347,-0.225,-0.793,1.099,-0.488
-0.878,0.35,-0.225,-1.099,1.343,-0.488
-0.877,0.354,-0.225,-1.282,1.221,-0.427
-0.877,0.357,-0.223,-0.732,1.099,-0.366
-0.875,0.36,-0.22,-0.427,1.221,-0.183
-0.875,0.361,-0.22,-0.061,0.61,-0.366
-0.876,0.36,-0.22,0.061,0.183,-0.183
-0.876,0.36,-0.223,0.488,0.061,-0.244
-0.877,0.357,-0.224,1.038,0.122,-0.061

-0.88,0.348,-0.225,1.16,0.122,0.427
-0.88,0.346,-0.225,1.099,-0.061,0.305
-0.88,0.346,-0.224,0.977,-0.122,0.183
-0.879,0.348,-0.226,0.671,0.305,0.244
-0.878,0.348,-0.227,0.549,0.244,0.122
-0.878,0.349,-0.226,0.305,0.305,0.0
-0.878,0.35,-0.227,0.244,0.305,0.0
-0.879,0.35,-0.226,0.122,0.549,-0.061
-0.878,0.35,-0.224,0.122,0.305,0.122
-0.878,0.354,-0.225,0.183,0.427,-0.305
-0.879,0.352,-0.224,0.183,0.732,-0.122
-0.879,0.35,-0.225,0.366,0.427,-0.244
-0.88,0.349,-0.225,0.427,0.366,-0.244
-0.879,0.349,-0.227,0.122,0.244,-0.366
-0.879,0.349,-0.226,0.122,0.122,-0.427
-0.879,0.35,-0.225,0.183,0.427,-0.183
-0.879,0.35,-0.226,-0.061,0.427,-0.244
-0.879,0.349,-0.226,0.061,0.488,-0.366
-0.878,0.348,-0.225,0.122,0.244,-0.427
-0.878,0.351,-0.225,-0.061,0.366,-0.549
-0.878,0.351,-0.225,-0.183,0.549,-0.549
-0.878,0.35,-0.226,-0.305,0.671,-0.671
-0.88,0.35,-0.227,-0.671,0.854,-0.61
-0.879,0.35,-0.225,-0.793,0.977,-0.488
-0.878,0.354,-0.224,-0.671,0.793,-0.549
-0.878,0.352,-0.224,-0.488,0.671,-0.61
-0.878,0.353,-0.222,-0.183,0.671,-0.427
-0.878,0.353,-0.225,-0.061,0.61,-0.305
-0.877,0.352,-0.225,-0.305,0.61,-0.366
-0.878,0.353,-0.225,-0.366,0.671,-0.427
-0.877,0.353,-0.226,-0.427,0.488,-0.549
-0.878,0.352,-0.224,-0.305,0.671,-0.488
-0.878,0.354,-0.224,-0.305,0.854,-0.366
-0.876,0.353,-0.223,-0.122,0.427,-0.366
-0.876,0.352,-0.221,0.122,0.427,-0.366
-0.878,0.353,-0.223,-0.061,0.427,-0.305
-0.879,0.354,-0.224,0.122,0.427,-0.366
-0.878,0.355,-0.225,-0.061,0.488,-0.244
-0.877,0.355,-0.224,-0.061,0.488,-0.244
-0.876,0.354,-0.227,-0.244,0.305,-0.305
-0.877,0.356,-0.225,-0.488,0.61,-0.244
-0.876,0.356,-0.222,-0.305,0.671,-0.244
-0.877,0.356,-0.223,-0.305,0.671,-0.244
-0.878,0.354,-0.223,0.122,0.366,-0.122
-0.878,0.355,-0.224,0.061,0.244,-0.122
-0.878,0.355,-0.225,0.305,0.244,0.122
-0.878,0.354,-0.226,0.305,0.244,-0.061
-0.878,0.356,-0.227,0.305,0.244,0.061
-0.876,0.356,-0.227,0.122,0.488,-0.061
-0.876,0.357,-0.225,0.183,0.244,0.061
-0.877,0.356,-0.225,0.061,0.244,0.183
-0.877,0.354,-0.223,0.122,0.183,0.0
-0.877,0.353,-0.224,0.244,0.244,0.122
-0.877,0.35,-0.225,0.549,0.0,0.122
-0.878,0.351,-0.226,0.427,0.0,0.183
-0.878,0.352,-0.227,0.183,0.244,0.122
-0.879,0.352,-0.227,-0.183,0.366,0.122
-0.879,0.351,-0.226,-0.061,0.488,0.183
-0.878,0.349,-0.225,-0.061,0.488,0.183
-0.878,0.349,-0.226,0.061,0.366,0.305
-0.878,0.35,-0.224,0.122,0.183,0.366
-0.876,0.351,-0.224,0.061,0.0,0.183
-0.878,0.354,-0.225,0.061,0.122,0.305
-0.877,0.353,-0.226,0.183,0.427,0.244
-0.877,0.353,-0.226,0.061,0.183,0.061
-0.879,0.352,-0.228,0.0,0.244,-0.061
-0.877,0.354,-0.227,-0.305,0.427,0.061
-0.876,0.352,-0.224,0.0,0.549,0.0
-0.878,0.352,-0.225,0.183,0.305,0.122
-0.88,0.35,-0.226,0.183,0.244,-0.183
-0.878,0.349,-0.225,0.244,0.366,-0.122
-0.878,0.348,-0.227,-0.244,0.305,-0.061
-0.879,0.352,-0.227,-0.244,0.427,-0.061
-0.877,0.351,-0.227,-0.061,0.488,-0.122
-0.88,0.349,-0.225,0.061,0.488,-0.244
-0.879,0.349,-0.225,0.0,0.427,-0.244
-0.879,0.348,-0.226,-0.122,0.244,-0.244
-0.879,0.349,-0.226,-0.122,0.183,-0.244
-0.879,0.351,-0.227,-0.244,0.427,-0.305
-0.878,0.35,-0.228,-0.244,0.488,-0.427
-0.879,0.35,-0.227,-0.244,0.488,-0.366
-0.877,0.352,-0.226,-0.183,0.61,-0.305
-0.877,0.353,-0.224,-0.366,0.671,-0.305
-0.878,0.352,-0.225,0.0,0.427,-0.427
-0.878,0.349,-0.225,0.183,0.488,-0.488
-0.878,0.349,-0.226,0.122,0.61,-0.305
-0.879,0.348,-0.227,0.061,0.549,-0.427
-0.879,0.35,-0.228,-0.061,0.488,-0.244
-0.879,0.35,-0.228,-0.305,0.671,-0.183
-0.878,0.351,-0.225,0.122,0.671,-0.305
-0.879,0.351,-0.225,0.183,0.488,-0.305
-0.879,0.35,-0.225,0.122,0.549,-0.244
-0.879,0.35,-0.225,0.244,0.244,-0.305
-0.878,0.35,-0.225,-0.061,0.305,-0.488
-0.877,0.352,-0.226,0.061,0.61,-0.488
-0.878,0.352,-0.227,0.0,0.549,-0.427
-0.879,0.353,-0.226,-0.183,0.488,-0.427
-0.877,0.352,-0.225,0.061,0.671,-0.244
-0.879,0.353,-0.225,0.061,0.549,-0.305
-0.879,0.353,-0.226,0.0,0.305,-0.366
-0.879,0.353,-0.226,0.0,0.549,-0.366
-0.877,0.354,-0.225,-0.183,0.732,-0.427
-0.877,0.355,-0.226,-0.183,0.793,-0.488
-0.877,0.353,-0.225,-0.061,0.61,-0.427
-0.878,0.353,-0.225,-0.061,0.732,-0.366
-0.878,0.353,-0.225,-0.183,0.61,-0.305
-0.877,0.355,-0.225,-0.244,0.61,-0.305
-0.876,0.355,-0.225,-0.122,0.427,-0.366
-0.877,0.355,-0.225,0.122,0.427,-0.305
-0.878,0.353,-0.224,0.183,0.61,-0.244
-0.876,0.351,-0.225,0.183,0.793,-0.305
-0.878,0.351,-0.227,0.122,0.305,-0.244
-0.879,0.352,-0.226,-0.244,0.61,-0.305
-0.879,0.353,-0.224,-0.183,0.488,-0.427
-0.876,0.354,-0.224,0.061,0.488,-0.244
-0.876,0.354,-0.225,0.183,0.366,-0.305
-0.876,0.355,-0.225,0.244,0.244,-0.244
-0.877,0.355,-0.225,0.366,0.488,-0.244
-0.877,0.354,-0.225,0.244,0.671,-0.183

-0.876,0.355,-0.225,-0.122,0.671,-0.122
-0.877,0.355,-0.224,0.0,0.61,-0.244
-0.877,0.355,-0.224,0.0,0.61,-0.244
-0.878,0.355,-0.224,0.366,0.366,-0.244
-0.877,0.353,-0.224,0.549,0.366,-0.305
-0.879,0.352,-0.226,0.549,0.61,-0.183
-0.878,0.353,-0.225,0.305,0.366,-0.427
-0.877,0.352,-0.226,0.183,0.366,-0.244
-0.877,0.354,-0.226,-0.061,0.305,-0.427
-0.877,0.354,-0.225,-0.183,0.61,-0.427
-0.876,0.354,-0.225,-0.183,0.549,-0.366
-0.878,0.353,-0.224,-0.122,0.549,-0.488
-0.876,0.353,-0.225,-0.183,0.671,-0.366
-0.877,0.353,-0.224,-0.122,0.549,-0.427
-0.877,0.353,-0.226,-0.244,0.366,-0.366
-0.877,0.355,-0.226,-0.427,0.488,-0.244
-0.878,0.355,-0.225,-0.366,0.549,-0.183
-0.878,0.355,-0.224,0.061,0.61,-0.244
-0.876,0.354,-0.224,-0.183,0.61,-0.305
-0.878,0.353,-0.225,0.0,0.427,-0.366
-0.878,0.354,-0.224,0.0,0.488,-0.244
-0.876,0.352,-0.224,0.061,0.427,-0.183
-0.877,0.351,-0.224,-0.061,0.488,-0.183
-0.876,0.353,-0.226,-0.183,0.61,-0.244
-0.877,0.354,-0.225,-0.305,0.61,-0.244
-0.878,0.355,-0.224,-0.244,0.732,-0.183
-0.878,0.354,-0.224,-0.366,0.916,-0.061
-0.875,0.355,-0.223,-0.305,0.793,-0.122
-0.877,0.356,-0.224,-0.244,0.366,-0.122
-0.877,0.356,-0.223,-0.122,0.427,-0.183
-0.875,0.355,-0.222,0.244,0.488,-0.122
-0.877,0.354,-0.224,-0.061,0.427,-0.061
-0.878,0.354,-0.225,0.0,0.549,0.0
-0.878,0.354,-0.224,-0.122,0.549,0.0
-0.878,0.354,-0.225,-0.305,0.366,-0.061
-0.878,0.354,-0.224,0.122,0.549,-0.061
-0.876,0.354,-0.224,0.0,0.366,-0.061
-0.876,0.354,-0.224,0.183,0.488,0.0
-0.878,0.353,-0.224,0.183,0.305,0.061
-0.877,0.354,-0.224,0.122,0.183,0.061
-0.879,0.353,-0.224,0.061,0.61,0.061
-0.878,0.354,-0.225,-0.244,0.61,-0.061
-0.877,0.355,-0.224,-0.244,0.366,0.0
-0.876,0.355,-0.224,-0.427,0.488,0.061
-0.876,0.357,-0.224,0.0,0.488,0.122
-0.876,0.356,-0.223,0.122,0.488,0.061
-0.877,0.355,-0.222,0.244,0.305,0.244
-0.878,0.353,-0.224,0.244,0.427,0.061
-0.879,0.353,-0.224,0.244,0.183,0.183
-0.877,0.353,-0.226,0.183,0.183,0.183
-0.878,0.353,-0.225,0.183,0.305,0.183
-0.878,0.352,-0.226,-0.122,0.366,0.122
-0.878,0.354,-0.225,0.0,0.549,0.244
-0.877,0.352,-0.225,0.0,0.61,0.183
-0.877,0.353,-0.224,0.244,0.488,0.183
-0.878,0.352,-0.224,0.305,0.366,0.122
-0.876,0.352,-0.223,0.122,0.366,0.244
-0.877,0.353,-0.225,-0.061,0.183,0.183
-0.877,0.355,-0.226,-0.122,0.488,0.244
-0.878,0.355,-0.226,-0.244,0.61,0.122
-0.876,0.354,-0.227,-0.122,0.61,0.305
-0.877,0.354,-0.225,-0.183,0.61,0.122
-0.877,0.354,-0.223,0.0,0.427,0.427
-0.877,0.353,-0.222,0.122,0.488,0.488
-0.878,0.352,-0.225,0.305,0.366,0.488
-0.876,0.352,-0.224,-0.061,0.244,0.427
-0.879,0.352,-0.226,-0.305,0.488,0.183
-0.879,0.35,-0.226,-0.305,0.793,0.305
-0.88,0.348,-0.226,-0.305,0.854,0.305
-0.882,0.346,-0.224,-0.854,0.854,0.183
-0.88,0.347,-0.224,-0.977,0.793,0.0
-0.879,0.351,-0.224,-1.16,0.916,0.0
-0.878,0.352,-0.224,-1.16,0.916,0.122
-0.878,0.353,-0.226,-0.732,0.916,0.0
-0.877,0.353,-0.223,-0.61,0.854,0.122
-0.877,0.352,-0.225,-0.61,0.671,0.061
-0.88,0.35,-0.225,-0.122,0.427,0.061
-0.88,0.35,-0.225,0.122,0.366,0.122
-0.88,0.349,-0.224,0.305,0.305,0.183
-0.88,0.349,-0.224,0.061,0.305,0.183
-0.879,0.349,-0.223,0.366,0.183,0.122
-0.877,0.351,-0.225,0.244,0.427,0.244
-0.879,0.35,-0.226,0.671,0.122,0.244
-0.878,0.35,-0.225,1.038,0.183,0.122
-0.88,0.345,-0.226,0.916,0.305,0.244
-0.88,0.344,-0.225,0.488,0.305,0.244
-0.881,0.344,-0.226,0.183,0.427,0.244
-0.88,0.349,-0.223,-0.183,0.61,0.183
-0.879,0.35,-0.223,0.0,0.671,0.0
-0.879,0.348,-0.225,0.366,0.549,0.0
-0.879,0.348,-0.226,0.305,0.427,0.0
-0.88,0.347,-0.225,0.305,0.366,0.183
-0.88,0.347,-0.225,0.122,0.427,0.244
-0.88,0.348,-0.224,0.0,0.488,-0.061
-0.879,0.349,-0.226,0.0,0.427,-0.183
-0.879,0.348,-0.225,0.305,0.366,-0.183
-0.88,0.348,-0.225,0.122,0.305,-0.183
-0.88,0.348,-0.226,0.244,0.061,-0.183
-0.88,0.348,-0.226,0.0,0.427,-0.122
-0.88,0.347,-0.226,-0.183,0.61,-0.244
-0.88,0.347,-0.226,-0.183,0.61,-0.305
-0.879,0.347,-0.226,-0.366,0.549,-0.183
-0.88,0.348,-0.224,-0.244,0.61,-0.366
-0.88,0.35,-0.226,-0.549,0.793,-0.427
-0.879,0.349,-0.224,-0.366,0.793,-0.427
-0.879,0.349,-0.225,-0.366,0.793,-0.427
-0.88,0.349,-0.224,-0.366,0.916,-0.427
-0.879,0.348,-0.223,-0.183,0.732,-0.183
-0.879,0.35,-0.223,-0.427,0.793,-0.183
-0.877,0.352,-0.224,-0.244,0.671,-0.305
-0.879,0.352,-0.223,-0.061,0.61,-0.427
-0.88,0.348,-0.224,0.061,0.671,-0.244
-0.881,0.347,-0.224,0.183,0.549,-0.244
-0.879,0.349,-0.224,-0.122,0.549,-0.183
-0.877,0.352,-0.224,0.0,0.549,-0.366
-0.878,0.353,-0.224,0.061,0.183,-0.244
-0.878,0.353,-0.224,0.122,0.305,-0.305
-0.879,0.35,-0.224,0.671,0.305,-0.305
-0.879,0.349,-0.224,0.61,0.183,-0.183

-0.881,0.349,-0.224,0.0,0.671,-0.366
-0.88,0.349,-0.224,0.061,0.671,-0.549
-0.88,0.348,-0.223,0.183,0.427,-0.427
-0.88,0.349,-0.222,0.305,0.366,-0.244
-0.878,0.349,-0.223,0.549,0.183,-0.183
-0.88,0.35,-0.224,0.61,0.122,0.0
-0.88,0.35,-0.224,0.549,0.183,-0.122
-0.878,0.351,-0.224,0.427,0.244,-0.244
-0.878,0.35,-0.225,0.305,0.427,-0.122
-0.878,0.35,-0.224,0.549,0.183,-0.183
-0.88,0.349,-0.225,0.366,0.366,-0.366
-0.88,0.35,-0.225,0.061,0.671,0.0
-0.88,0.35,-0.224,-0.061,0.61,-0.061
-0.879,0.349,-0.225,0.244,0.549,-0.183
-0.878,0.349,-0.225,0.183,0.549,-0.366
-0.878,0.35,-0.226,0.061,0.793,-0.122
-0.879,0.351,-0.225,-0.427,0.916,-0.061
-0.878,0.352,-0.224,-0.305,0.793,-0.244
-0.879,0.352,-0.223,-0.366,0.854,-0.305
-0.879,0.352,-0.222,-0.183,0.854,-0.305
-0.88,0.351,-0.221,0.0,0.793,-0.244
-0.879,0.347,-0.219,-0.061,0.427,-0.305
-0.88,0.35,-0.22,-0.366,0.671,-0.305
-0.881,0.347,-0.227,-0.183,0.732,-0.427
-0.881,0.347,-0.224,-0.122,0.61,-0.305
-0.879,0.349,-0.224,-0.366,0.671,-0.305
-0.88,0.349,-0.223,-0.732,0.977,-0.244
-0.88,0.35,-0.222,-0.916,0.916,-0.305
-0.879,0.352,-0.221,-0.977,1.343,-0.244
-0.877,0.352,-0.221,-0.854,0.793,-0.305
-0.879,0.355,-0.22,-0.671,0.793,-0.183
-0.877,0.356,-0.22,-0.671,0.671,-0.183
-0.878,0.354,-0.223,0.061,0.488,0.061
-0.879,0.351,-0.224,0.061,0.488,-0.061
-0.881,0.35,-0.223,0.061,0.549,-0.061
-0.882,0.349,-0.224,-0.122,0.732,-0.183
-0.878,0.346,-0.224,-0.122,0.671,0.0
-0.879,0.344,-0.222,0.61,0.671,0.366
-0.881,0.349,-0.225,0.0,0.488,0.244
-0.879,0.351,-0.225,0.183,0.366,0.305
-0.879,0.349,-0.223,0.183,0.549,0.305
-0.879,0.348,-0.223,0.122,0.549,0.366
-0.88,0.349,-0.223,0.122,0.488,0.305
-0.879,0.349,-0.223,0.061,0.488,0.244
-0.88,0.351,-0.222,-0.061,0.549,0.183
-0.878,0.35,-0.223,-0.061,0.488,0.366
-0.88,0.349,-0.222,0.122,0.549,0.366
-0.881,0.349,-0.221,0.122,0.549,0.488
-0.88,0.35,-0.223,0.122,0.549,0.488
-0.88,0.351,-0.223,0.183,0.305,0.549
-0.879,0.35,-0.224,0.061,0.366,0.549
-0.879,0.35,-0.224,0.244,0.183,0.488
-0.879,0.35,-0.224,0.366,0.305,0.549
-0.88,0.347,-0.223,0.732,0.305,0.488
-0.881,0.346,-0.222,0.549,0.183,0.366
-0.882,0.346,-0.224,0.549,0.183,0.366
-0.882,0.345,-0.226,0.671,0.427,0.244
-0.881,0.346,-0.226,0.488,0.671,0.183
-0.88,0.346,-0.225,0.0,0.61,0.244
-0.88,0.346,-0.223,0.0,0.793,0.305
-0.881,0.346,-0.222,0.061,0.793,0.122
-0.881,0.346,-0.222,0.183,0.793,0.183
-0.881,0.344,-0.222,0.427,0.61,0.244
-0.882,0.345,-0.222,0.183,0.549,0.183
-0.882,0.346,-0.224,0.244,0.549,0.183
-0.881,0.346,-0.224,0.244,0.488,0.305
-0.88,0.348,-0.224,0.122,0.732,0.122
-0.881,0.347,-0.223,0.183,0.671,0.244
-0.881,0.346,-0.223,0.244,0.916,0.427
-0.883,0.345,-0.222,0.183,0.61,0.183
-0.881,0.344,-0.222,0.305,0.671,0.366
-0.881,0.344,-0.223,0.244,0.793,0.366
-0.882,0.345,-0.224,0.183,0.427,0.305
-0.884,0.344,-0.223,0.244,0.549,0.305
-0.884,0.344,-0.223,0.183,0.61,0.244
-0.887,0.341,-0.222,0.427,0.732,0.427
-0.888,0.342,-0.219,0.183,0.793,0.549
-0.88,0.342,-0.217,-0.122,0.916,0.671
-0.88,0.342,-0.222,-0.061,0.427,0.244
-0.88,0.345,-0.222,0.0,0.244,0.305
-0.881,0.347,-0.224,-0.061,0.916,-0.122
-0.88,0.345,-0.223,0.0,1.099,-0.122
-0.88,0.343,-0.222,-0.549,1.343,-0.305
-0.881,0.343,-0.221,-0.732,1.099,-0.122
-0.883,0.346,-0.217,-0.427,0.916,-0.183
-0.882,0.346,-0.218,-0.244,0.793,-0.244
-0.882,0.344,-0.219,0.549,0.366,-0.061
-0.881,0.344,-0.221,0.488,0.671,-0.183
-0.882,0.342,-0.223,0.427,0.366,-0.122
-0.882,0.343,-0.223,0.061,0.732,-0.061
-0.881,0.346,-0.223,-0.793,1.282,-0.122
-0.881,0.348,-0.217,-0.366,0.854,-0.061
-0.881,0.349,-0.217,0.244,0.549,-0.183
-0.883,0.347,-0.219,0.916,0.427,0.122
-0.882,0.344,-0.219,1.221,0.305,0.061
-0.884,0.338,-0.222,0.732,0.244,0.0
-0.886,0.337,-0.223,0.671,0.427,-0.061
-0.886,0.338,-0.22,-0.183,1.221,-0.061
-0.884,0.343,-0.218,-0.732,1.343,-0.244
-0.883,0.346,-0.217,-0.793,1.16,-0.061
-0.88,0.348,-0.216,-0.305,0.793,-0.183
-0.88,0.349,-0.217,-0.122,0.61,-0.122
-0.881,0.348,-0.219,0.61,0.427,-0.122
-0.882,0.347,-0.221,0.732,0.427,-0.061
-0.884,0.34,-0.218,0.854,0.671,0.122
-0.885,0.341,-0.219,0.488,0.732,0.0
-0.883,0.341,-0.218,0.427,0.671,0.0
-0.885,0.344,-0.216,0.061,0.488,-0.061
-0.884,0.346,-0.215,0.244,0.61,-0.122
-0.883,0.345,-0.216,0.549,0.427,0.0
-0.885,0.342,-0.216,1.099,0.305,-0.061
-0.885,0.341,-0.217,0.977,0.122,-0.122
-0.885,0.341,-0.216,0.732,0.244,-0.183
-0.883,0.34,-0.218,0.671,0.488,-0.122
-0.886,0.338,-0.218,0.061,0.854,-0.305
-0.887,0.339,-0.218,-0.366,0.732,-0.366
-0.884,0.341,-0.219,-0.488,0.977,-0.122
-0.882,0.344,-0.218,-0.793,1.038,-0.305
-0.883,0.345,-0.216,-0.122,0.977,-0.244

-0.882,0.345,-0.217,0.854,0.488,-0.427
-0.882,0.343,-0.217,0.61,0.366,-0.671
-0.883,0.34,-0.218,0.305,0.671,-0.732
-0.885,0.341,-0.219,-0.183,0.854,-0.671
-0.885,0.34,-0.217,-0.427,0.854,-0.732
-0.886,0.342,-0.217,-0.366,1.343,-0.671
-0.885,0.34,-0.215,-0.366,1.038,-0.671
-0.886,0.341,-0.213,-0.122,0.793,-0.549
-0.883,0.346,-0.217,-0.061,0.488,-0.732
-0.882,0.346,-0.216,0.122,0.427,-0.671
-0.881,0.346,-0.218,0.061,0.793,-0.671
-0.882,0.345,-0.217,-0.244,1.099,-0.671
-0.881,0.344,-0.216,-0.793,1.099,-0.793
-0.881,0.349,-0.214,-0.916,1.221,-0.793
-0.882,0.353,-0.213,-0.244,0.793,-0.854
-0.882,0.352,-0.213,0.061,0.61,-0.916
-0.882,0.348,-0.217,0.671,0.793,-0.671
-0.881,0.348,-0.217,0.366,0.61,-0.671
-0.88,0.346,-0.218,0.305,0.732,-0.549
-0.881,0.348,-0.218,0.0,0.732,-0.549
-0.883,0.349,-0.217,0.549,0.732,-0.793
-0.884,0.345,-0.215,0.61,0.671,-0.671
-0.884,0.346,-0.215,0.244,0.854,-0.549
-0.883,0.348,-0.214,0.183,0.793,-0.488
-0.883,0.351,-0.213,0.122,0.671,-0.488
-0.882,0.35,-0.214,0.122,0.549,-0.427
-0.88,0.35,-0.213,0.549,0.61,-0.427
-0.881,0.349,-0.213,0.671,0.488,-0.488
-0.881,0.345,-0.214,0.854,0.488,-0.549
-0.882,0.347,-0.215,0.854,0.488,-0.305
-0.883,0.347,-0.215,0.305,0.732,-0.427
-0.883,0.347,-0.213,0.122,1.038,-0.366
-0.882,0.349,-0.212,-0.244,1.099,-0.366
-0.882,0.351,-0.212,0.061,0.671,-0.427
-0.88,0.352,-0.212,0.671,0.244,-0.305
-0.882,0.351,-0.213,0.854,0.305,0.061
-0.883,0.348,-0.211,0.854,0.366,0.0
-0.883,0.349,-0.211,0.366,0.488,-0.122
-0.881,0.349,-0.21,0.488,0.549,0.0
-0.879,0.353,-0.208,0.793,0.122,0.061
-0.88,0.357,-0.21,0.732,-0.366,-0.061
-0.881,0.357,-0.211,1.038,-0.305,-0.061
-0.88,0.356,-0.21,0.977,-0.122,-0.183
-0.878,0.344,-0.209,1.282,0.366,-0.122
-0.885,0.344,-0.211,0.793,0.244,-0.183
-0.885,0.346,-0.212,-0.183,0.122,-0.488
-0.884,0.347,-0.209,-0.244,0.244,-0.427
-0.882,0.35,-0.209,0.061,0.427,-0.061
-0.882,0.351,-0.21,0.183,0.183,0.0
-0.883,0.35,-0.212,0.793,-0.244,0.061
-0.88,0.352,-0.211,1.16,-0.61,0.061
-0.881,0.349,-0.21,0.854,-0.427,0.122
-0.881,0.35,-0.211,0.854,-0.305,0.122
-0.88,0.35,-0.213,0.366,-0.244,0.061
-0.88,0.35,-0.213,0.305,-0.305,0.061
-0.881,0.352,-0.213,0.305,-0.244,-0.061
-0.881,0.354,-0.213,0.305,0.0,0.061
-0.882,0.352,-0.212,0.61,0.0,0.183
-0.88,0.349,-0.213,0.732,-0.305,0.0
-0.881,0.345,-0.214,0.916,-0.488,-0.183
-0.884,0.343,-0.217,0.854,-0.549,-0.122
-0.885,0.342,-0.218,0.671,-0.366,-0.061
-0.884,0.343,-0.216,0.305,-0.305,0.183
-0.882,0.348,-0.216,-0.061,-0.122,-0.061
-0.881,0.349,-0.216,-0.122,-0.122,-0.183
-0.883,0.35,-0.215,0.305,0.122,-0.244
-0.882,0.349,-0.218,0.366,0.0,-0.305
-0.881,0.346,-0.217,0.305,0.244,-0.122
-0.88,0.347,-0.217,-0.244,0.305,-0.305
-0.882,0.349,-0.217,-0.305,0.183,-0.427
-0.883,0.351,-0.217,-0.244,0.549,-0.427
-0.882,0.35,-0.219,-0.183,0.61,-0.366
-0.883,0.347,-0.218,-0.183,0.61,-0.244
-0.882,0.345,-0.218,-0.122,0.61,-0.183
-0.882,0.347,-0.218,-0.244,0.427,-0.305
-0.884,0.347,-0.217,-0.183,0.366,-0.305
-0.882,0.347,-0.217,-0.183,0.427,-0.244
-0.883,0.347,-0.217,-0.488,0.671,-0.244
-0.882,0.349,-0.218,-0.305,0.427,-0.183
-0.881,0.349,-0.217,-0.488,0.427,-0.366
-0.882,0.351,-0.216,-0.61,0.61,-0.244
-0.88,0.351,-0.216,-0.305,0.793,-0.305
-0.88,0.35,-0.217,-0.061,0.732,-0.305
-0.881,0.351,-0.217,-0.122,0.549,-0.305
-0.881,0.351,-0.217,-0.305,0.793,-0.244
-0.882,0.35,-0.216,-0.305,0.732,-0.427
-0.88,0.349,-0.215,-0.549,0.854,-0.366
-0.882,0.348,-0.215,-0.427,0.793,-0.244
-0.883,0.349,-0.216,-0.061,0.549,-0.366
-0.883,0.348,-0.217,0.244,0.366,-0.122
-0.881,0.349,-0.215,-0.061,0.427,0.0
-0.881,0.349,-0.215,0.0,0.61,-0.061
-0.882,0.35,-0.214,0.0,0.61,-0.061
-0.882,0.349,-0.215,-0.122,0.549,-0.366
-0.881,0.349,-0.214,-0.183,0.793,-0.244
-0.88,0.351,-0.214,0.0,0.671,0.0
-0.88,0.35,-0.216,-0.122,0.671,-0.122
-0.879,0.35,-0.215,0.0,0.61,-0.061
-0.883,0.352,-0.214,0.061,0.671,-0.183
-0.879,0.35,-0.214,0.122,0.793,-0.183
-0.88,0.349,-0.214,-0.061,0.61,-0.122
-0.88,0.35,-0.214,-0.183,0.61,-0.305
-0.88,0.351,-0.214,-0.122,0.488,-0.366
-0.882,0.35,-0.213,-0.244,0.61,-0.305
-0.882,0.349,-0.214,-0.122,0.549,-0.183
-0.881,0.348,-0.214,-0.366,0.61,-0.305
-0.882,0.347,-0.214,-0.366,0.488,-0.244
-0.882,0.349,-0.213,-0.122,0.488,-0.305
-0.882,0.35,-0.213,-0.183,0.671,0.0
-0.88,0.349,-0.212,-0.305,0.671,-0.061
-0.881,0.351,-0.214,-0.427,0.61,-0.244
-0.881,0.35,-0.214,-0.793,0.732,-0.244
-0.88,0.352,-0.214,-0.732,0.732,-0.183
-0.88,0.351,-0.213,-0.732,0.61,-0.244
-0.881,0.35,-0.213,-0.061,0.366,-0.122
-0.883,0.349,-0.213,-0.122,0.305,-0.244
-0.883,0.349,-0.213,-0.183,0.366,-0.122
-0.882,0.351,-0.214,-0.305,0.427,-0.122
-0.879,0.351,-0.214,-0.366,0.549,-0.244

-0.881,0.349,-0.214,-0.244,0.244,-0.061
-0.881,0.347,-0.214,-0.061,0.305,-0.061
-0.881,0.347,-0.213,-0.183,0.305,-0.061
-0.883,0.348,-0.214,-0.183,0.305,-0.183
-0.882,0.349,-0.214,-0.183,0.366,-0.183
-0.883,0.349,-0.215,-0.305,0.305,-0.183
-0.882,0.35,-0.214,-0.305,0.305,-0.122
-0.88,0.351,-0.214,-0.305,0.366,-0.305
-0.88,0.352,-0.214,-0.305,0.183,-0.244
-0.881,0.351,-0.216,0.061,0.061,-0.244
-0.882,0.35,-0.215,0.0,0.122,-0.305
-0.882,0.348,-0.215,0.122,0.061,-0.305
-0.882,0.348,-0.216,0.244,0.0,-0.305
-0.883,0.348,-0.217,0.0,-0.122,-0.244
-0.881,0.347,-0.216,0.183,-0.061,-0.183
-0.882,0.347,-0.216,0.305,-0.061,-0.244
-0.881,0.349,-0.218,0.183,-0.122,-0.244
-0.879,0.348,-0.218,0.366,0.122,-0.183
-0.881,0.347,-0.219,0.366,0.0,-0.366
-0.882,0.346,-0.217,0.061,0.0,-0.305
-0.882,0.347,-0.218,-0.244,0.305,-0.183
-0.88,0.35,-0.216,-0.427,0.488,-0.183
-0.881,0.35,-0.217,-0.305,0.427,-0.305
-0.88,0.35,-0.217,-0.122,0.244,-0.244
-0.881,0.351,-0.215,-0.183,0.427,-0.244
-0.88,0.348,-0.215,-0.061,0.427,-0.305
-0.88,0.349,-0.217,-0.366,0.549,-0.366
-0.88,0.349,-0.218,-0.488,0.488,-0.366
-0.882,0.351,-0.217,-0.366,0.366,-0.366
-0.88,0.349,-0.216,-0.366,0.427,-0.305
-0.881,0.348,-0.217,-0.549,0.549,-0.244
-0.881,0.35,-0.217,-0.61,0.488,-0.244
-0.881,0.35,-0.216,-0.305,0.305,-0.366
-0.88,0.35,-0.216,-0.305,0.427,-0.549
-0.88,0.349,-0.218,-0.61,0.549,-0.305
-0.88,0.349,-0.218,-0.61,0.61,-0.488
-0.88,0.352,-0.217,-0.732,0.488,-0.244
-0.88,0.351,-0.218,-0.549,0.488,-0.366
-0.88,0.35,-0.216,-0.549,0.61,-0.244
-0.881,0.351,-0.216,-0.488,0.427,-0.244
-0.881,0.352,-0.217,-0.61,0.305,-0.183
-0.88,0.353,-0.218,-0.61,0.366,-0.122
-0.88,0.352,-0.218,-0.549,0.488,-0.061
-0.88,0.352,-0.217,-0.427,0.549,-0.061
-0.88,0.351,-0.216,-0.122,0.366,0.0
-0.881,0.35,-0.216,0.0,0.366,0.122
-0.881,0.349,-0.217,0.122,0.061,0.061
-0.88,0.348,-0.218,0.0,0.183,-0.122
-0.88,0.35,-0.218,-0.244,0.244,-0.183
-0.88,0.35,-0.219,-0.122,0.366,-0.305
-0.882,0.35,-0.217,-0.061,0.244,-0.244
-0.881,0.349,-0.216,0.305,0.122,-0.305
-0.881,0.348,-0.217,0.0,0.122,-0.366
-0.881,0.35,-0.217,0.061,0.305,-0.183
-0.88,0.35,-0.219,0.0,0.366,-0.122
-0.88,0.35,-0.219,0.122,-0.122,-0.244
-0.88,0.35,-0.218,0.183,0.0,-0.183
-0.88,0.352,-0.217,0.061,0.549,-0.122
-0.879,0.349,-0.218,0.122,0.244,-0.122
-0.88,0.348,-0.219,0.0,0.0,-0.305
-0.881,0.347,-0.219,0.244,0.122,-0.366
-0.882,0.348,-0.218,0.122,0.061,-0.244
-0.882,0.347,-0.22,-0.122,0.366,-0.122
-0.883,0.345,-0.219,-0.366,0.366,-0.366
-0.881,0.348,-0.219,-0.366,0.427,-0.122
-0.88,0.349,-0.219,-0.61,0.488,-0.122
-0.881,0.349,-0.217,-0.305,0.549,-0.122
-0.88,0.349,-0.218,-0.549,0.427,-0.183
-0.88,0.351,-0.218,-0.671,0.488,-0.183
-0.88,0.35,-0.219,-0.549,0.671,-0.305
-0.88,0.351,-0.221,-0.549,0.61,-0.183
-0.88,0.349,-0.22,-0.488,0.61,-0.305
-0.882,0.348,-0.219,-0.732,0.549,-0.244
-0.881,0.348,-0.22,-0.671,0.366,-0.244
-0.883,0.348,-0.219,-0.61,0.549,-0.305
-0.882,0.349,-0.219,-0.793,0.671,-0.183
-0.88,0.351,-0.219,-0.61,0.671,-0.305
-0.88,0.352,-0.219,-0.549,0.732,-0.244
-0.878,0.354,-0.218,-0.549,0.366,-0.122
-0.88,0.354,-0.22,0.305,0.366,-0.061
-0.88,0.353,-0.22,0.122,0.244,-0.061
-0.881,0.346,-0.22,0.366,0.183,-0.061
-0.883,0.346,-0.218,0.061,0.183,-0.122
-0.882,0.349,-0.221,-0.366,0.366,0.061
-0.881,0.349,-0.22,-0.305,0.549,0.061
-0.879,0.351,-0.219,-0.366,0.549,0.061
-0.88,0.351,-0.22,-0.122,0.488,0.0
-0.88,0.35,-0.219,0.183,0.366,-0.061
-0.88,0.349,-0.219,0.122,0.305,0.0
-0.881,0.348,-0.219,0.305,0.244,0.0
-0.881,0.349,-0.22,0.061,0.305,0.0
-0.88,0.347,-0.219,-0.183,0.427,0.0
-0.881,0.349,-0.219,-0.305,0.488,-0.061
-0.881,0.349,-0.219,-0.061,0.488,0.061
-0.88,0.349,-0.218,-0.305,0.427,0.061
-0.882,0.349,-0.219,-0.183,0.427,-0.122
-0.881,0.349,-0.219,0.0,0.366,-0.183
-0.88,0.349,-0.219,-0.122,0.427,0.061
-0.88,0.351,-0.22,-0.366,0.61,-0.061
-0.88,0.35,-0.219,-0.061,0.305,0.061
-0.881,0.35,-0.219,0.122,0.244,-0.061
-0.882,0.349,-0.218,0.244,0.488,0.122
-0.882,0.348,-0.218,0.549,0.305,0.061
-0.882,0.347,-0.22,0.366,0.122,0.061
-0.882,0.345,-0.22,0.122,0.244,0.061
-0.883,0.345,-0.221,0.0,0.244,-0.061
-0.882,0.345,-0.219,-0.183,0.549,-0.183
-0.882,0.347,-0.219,-0.305,0.793,-0.366
-0.881,0.347,-0.22,-0.244,0.549,-0.061
-0.881,0.347,-0.219,-0.305,0.549,-0.244
-0.882,0.348,-0.219,-0.427,0.732,-0.244
-0.881,0.349,-0.218,-0.183,0.732,-0.183
-0.882,0.347,-0.22,-0.244,0.671,-0.427
-0.881,0.347,-0.219,-0.427,0.732,-0.488
-0.881,0.35,-0.216,-0.793,0.793,-0.427
-0.88,0.35,-0.216,-0.671,0.732,-0.549
-0.881,0.35,-0.217,-0.671,0.854,-0.488
-0.882,0.349,-0.218,-0.244,0.427,-0.244
-0.88,0.35,-0.219,-0.366,0.366,-0.183

-0.88,0.348,-0.219,-0.061,0.427,-0.061
-0.88,0.348,-0.218,-0.122,0.427,0.061
-0.88,0.349,-0.219,0.0,0.244,-0.061
-0.88,0.349,-0.217,0.061,0.305,-0.061
-0.881,0.349,-0.218,0.0,0.366,-0.183
-0.88,0.347,-0.218,0.0,0.488,-0.183
-0.882,0.345,-0.221,-0.061,0.305,-0.183
-0.882,0.344,-0.222,-0.366,0.488,-0.244
-0.881,0.346,-0.221,-0.549,0.61,0.0
-0.882,0.348,-0.222,-0.427,0.61,-0.122
-0.881,0.348,-0.22,-0.488,0.671,-0.183
-0.88,0.348,-0.22,-0.549,0.793,-0.122
-0.88,0.35,-0.218,-0.488,0.488,-0.122
-0.881,0.348,-0.218,0.0,0.183,-0.122
-0.882,0.348,-0.218,-0.183,0.244,-0.183
-0.88,0.349,-0.22,0.061,0.366,-0.183
-0.88,0.349,-0.22,0.061,0.366,-0.122
-0.881,0.348,-0.221,0.0,0.061,-0.183
-0.881,0.345,-0.219,0.244,0.305,-0.122
-0.881,0.348,-0.22,0.0,0.366,0.0
-0.881,0.347,-0.219,-0.061,0.366,-0.122
-0.881,0.348,-0.218,0.244,0.061,-0.183
-0.88,0.348,-0.219,0.244,-0.061,-0.244
-0.881,0.345,-0.22,0.732,0.244,-0.244
-0.882,0.345,-0.222,0.488,0.061,-0.183
-0.883,0.345,-0.222,0.183,0.183,-0.183
-0.882,0.344,-0.223,0.0,0.244,-0.122
-0.882,0.348,-0.221,-0.061,0.549,-0.122
-0.882,0.348,-0.22,0.0,0.427,0.0
-0.881,0.349,-0.219,0.366,0.183,-0.122
-0.88,0.349,-0.218,0.183,0.122,-0.183
-0.879,0.348,-0.22,0.0,0.488,-0.305
-0.881,0.348,-0.22,0.305,0.427,-0.183
-0.881,0.347,-0.22,0.061,0.244,-0.244
-0.881,0.346,-0.22,-0.061,0.244,-0.183
-0.882,0.349,-0.219,-0.183,0.488,-0.366
-0.881,0.347,-0.221,-0.305,0.366,-0.366
-0.88,0.347,-0.22,-0.427,0.671,-0.305
-0.881,0.348,-0.22,-0.305,0.549,-0.366
-0.881,0.348,-0.22,-0.366,0.488,-0.488
-0.88,0.349,-0.219,-0.427,0.61,-0.305
-0.88,0.348,-0.219,-0.244,0.427,-0.366
-0.88,0.349,-0.22,-0.427,0.427,-0.366
-0.88,0.348,-0.221,-0.366,0.549,-0.305
-0.882,0.348,-0.22,-0.305,0.61,-0.244
-0.881,0.348,-0.22,-0.488,0.549,-0.244
-0.881,0.348,-0.22,-0.244,0.427,-0.244
-0.882,0.347,-0.219,-0.183,0.244,-0.061
-0.881,0.349,-0.219,-0.061,0.427,-0.183
-0.881,0.349,-0.22,0.0,0.305,-0.244
-0.88,0.349,-0.22,-0.183,0.488,-0.244
-0.882,0.349,-0.22,-0.183,0.427,-0.122
-0.881,0.351,-0.222,-0.366,0.61,-0.244
-0.88,0.349,-0.219,-0.427,0.549,-0.183
-0.881,0.349,-0.219,-0.244,0.427,-0.183
-0.881,0.348,-0.219,-0.061,0.366,-0.122
-0.881,0.351,-0.218,-0.122,0.122,-0.183
-0.882,0.348,-0.221,0.305,0.183,-0.244
-0.881,0.348,-0.223,0.183,0.244,-0.183
-0.88,0.349,-0.222,0.0,0.305,0.0
-0.879,0.349,-0.221,0.061,0.427,0.061
-0.88,0.348,-0.22,0.305,0.061,-0.061
-0.881,0.347,-0.22,0.549,0.061,-0.061
-0.881,0.345,-0.222,0.366,0.183,0.0
-0.881,0.344,-0.223,-0.061,0.427,-0.122
-0.88,0.345,-0.226,-0.305,0.427,-0.183
-0.882,0.345,-0.224,-0.488,0.61,-0.061
-0.882,0.347,-0.221,-0.549,0.793,-0.122
-0.882,0.348,-0.22,-0.427,0.732,-0.061
-0.88,0.349,-0.22,-0.183,0.549,0.0
-0.88,0.35,-0.219,-0.061,0.366,0.0
-0.88,0.351,-0.22,0.122,0.122,-0.122
-0.88,0.351,-0.221,0.061,0.305,-0.183
-0.879,0.348,-0.222,0.0,0.488,-0.183
-0.88,0.349,-0.221,-0.183,0.427,-0.244
-0.88,0.349,-0.222,-0.183,0.488,-0.122
-0.882,0.349,-0.221,-0.061,0.244,-0.061
-0.882,0.346,-0.221,-0.061,0.488,-0.122
-0.881,0.346,-0.22,0.0,0.366,-0.122
-0.883,0.344,-0.221,0.0,0.427,-0.305
-0.883,0.344,-0.224,-0.305,0.427,-0.244
-0.881,0.345,-0.224,-0.427,0.427,-0.183
-0.881,0.347,-0.221,-0.183,0.549,-0.122
-0.88,0.346,-0.221,-0.427,0.732,-0.244
-0.881,0.348,-0.221,-0.366,0.732,-0.305
-0.88,0.349,-0.222,-0.244,0.61,-0.244
-0.88,0.35,-0.22,-0.305,0.488,-0.244
-0.88,0.348,-0.221,-0.061,0.488,-0.305
-0.88,0.348,-0.221,0.061,0.427,-0.488
-0.882,0.348,-0.22,0.122,0.427,-0.244
-0.883,0.346,-0.221,0.488,0.427,-0.427
-0.882,0.346,-0.22,0.122,0.244,-0.244
-0.882,0.345,-0.223,0.061,0.305,-0.366
-0.881,0.345,-0.221,0.0,0.305,-0.305
-0.88,0.349,-0.222,-0.183,0.549,-0.244
-0.88,0.349,-0.222,0.0,0.549,-0.244
-0.881,0.348,-0.222,-0.061,0.427,-0.305
-0.88,0.349,-0.222,-0.183,0.549,-0.183
-0.882,0.349,-0.221,-0.183,0.427,-0.305
-0.881,0.347,-0.22,-0.061,0.427,-0.366
-0.88,0.347,-0.22,-0.061,0.427,-0.122
-0.881,0.35,-0.221,-0.244,0.488,-0.244
-0.88,0.352,-0.221,-0.305,0.366,-0.244
-0.879,0.352,-0.221,-0.183,0.549,-0.183
-0.88,0.352,-0.221,-0.183,0.549,-0.244
-0.882,0.348,-0.221,0.244,0.183,-0.305
-0.881,0.346,-0.22,0.305,0.183,-0.488
-0.882,0.345,-0.222,0.244,0.427,-0.122
-0.881,0.344,-0.221,0.244,0.366,-0.061
-0.882,0.346,-0.221,-0.061,0.427,-0.183
-0.881,0.346,-0.222,-0.183,0.61,-0.122
-0.881,0.347,-0.221,-0.122,0.61,-0.183
-0.88,0.348,-0.221,0.0,0.366,-0.366
-0.881,0.348,-0.22,0.0,0.488,-0.183
-0.88,0.348,-0.22,-0.061,0.488,-0.122
-0.88,0.349,-0.221,0.061,0.549,-0.244
-0.88,0.348,-0.221,-0.061,0.549,-0.244
-0.88,0.349,-0.221,-0.305,0.549,-0.122
-0.881,0.349,-0.22,-0.244,0.549,-0.183

-0.88,0.351,-0.219,0.0,0.488,-0.061
-0.881,0.349,-0.222,0.122,0.427,-0.183
-0.88,0.347,-0.221,0.061,0.305,-0.061
-0.88,0.347,-0.222,0.061,0.305,-0.122
-0.882,0.348,-0.222,0.0,0.366,-0.183
-0.881,0.347,-0.222,0.0,0.366,-0.244
-0.88,0.347,-0.222,0.0,0.366,-0.183
-0.88,0.348,-0.221,-0.061,0.549,-0.122
-0.879,0.348,-0.219,-0.183,0.488,-0.122
-0.88,0.348,-0.22,-0.366,0.427,-0.305
-0.882,0.347,-0.221,-0.183,0.427,-0.244
-0.881,0.348,-0.221,0.0,0.366,-0.122
-0.881,0.349,-0.222,-0.183,0.366,-0.122
-0.88,0.349,-0.222,-0.366,0.427,0.061
-0.88,0.349,-0.222,-0.549,0.61,-0.183
-0.881,0.35,-0.221,-0.122,0.427,-0.183
-0.882,0.349,-0.221,-0.061,0.366,-0.244
-0.88,0.349,-0.22,0.0,0.488,0.0
-0.879,0.349,-0.221,0.122,0.244,0.0
-0.88,0.349,-0.222,0.061,0.427,0.0
-0.881,0.349,-0.221,0.122,0.427,-0.061
-0.883,0.347,-0.22,0.427,0.183,-0.122
-0.882,0.345,-0.221,0.183,0.244,0.0
-0.881,0.345,-0.222,0.061,0.244,0.0
-0.881,0.348,-0.221,-0.183,0.366,-0.061
-0.88,0.348,-0.221,0.0,0.305,-0.183
-0.88,0.349,-0.221,-0.061,0.305,-0.183
-0.88,0.349,-0.221,0.122,0.549,-0.183
-0.882,0.346,-0.222,0.183,0.305,-0.122
-0.881,0.346,-0.222,0.122,0.366,-0.061
-0.88,0.344,-0.221,-0.061,0.488,-0.061
-0.881,0.345,-0.222,0.183,0.244,-0.183
-0.881,0.346,-0.221,0.183,0.305,-0.122
-0.88,0.348,-0.221,0.244,0.488,-0.061
-0.88,0.348,-0.221,0.305,0.183,0.183
-0.88,0.346,-0.221,0.305,0.305,-0.122
-0.882,0.346,-0.222,0.061,0.488,-0.061
-0.882,0.346,-0.222,0.061,0.427,-0.183
-0.883,0.346,-0.221,0.122,0.366,-0.122
-0.882,0.346,-0.222,0.061,0.305,-0.061
-0.881,0.348,-0.222,-0.305,0.366,-0.122
-0.88,0.348,-0.223,-0.427,0.549,-0.122
-0.881,0.349,-0.222,-0.183,0.61,-0.244
-0.881,0.347,-0.221,0.0,0.244,-0.183
-0.88,0.346,-0.222,0.122,0.305,-0.244
-0.882,0.347,-0.222,-0.244,0.549,-0.183
-0.88,0.348,-0.223,-0.366,0.305,-0.244
-0.88,0.348,-0.224,-0.183,0.427,-0.305
-0.881,0.348,-0.224,-0.244,0.61,-0.366
-0.883,0.349,-0.222,-0.488,0.366,-0.061
-0.881,0.35,-0.223,-0.854,0.427,-0.305
-0.881,0.348,-0.221,-0.183,0.488,-0.427
-0.881,0.349,-0.222,-0.305,0.427,-0.305
-0.881,0.349,-0.222,-0.305,0.488,-0.366
-0.88,0.349,-0.22,-0.305,0.61,-0.183
-0.88,0.348,-0.222,-0.183,0.488,-0.244
-0.883,0.349,-0.222,-0.122,0.549,-0.244
-0.88,0.348,-0.221,0.0,0.244,-0.305
-0.881,0.348,-0.221,-0.061,0.122,-0.244
-0.88,0.349,-0.221,-0.244,0.244,-0.366
-0.879,0.349,-0.222,0.122,0.244,-0.427
-0.88,0.349,-0.221,0.061,0.366,-0.305
-0.882,0.349,-0.223,-0.061,0.366,-0.244
-0.882,0.348,-0.222,-0.061,0.183,-0.244
-0.882,0.349,-0.221,0.061,0.305,-0.488
-0.88,0.349,-0.22,0.183,0.244,-0.366
-0.88,0.349,-0.219,0.305,0.061,-0.427
-0.879,0.35,-0.223,0.244,0.122,-0.427
-0.88,0.349,-0.224,0.183,0.061,-0.488
-0.88,0.348,-0.223,0.366,0.366,-0.366
-0.88,0.346,-0.224,0.244,0.488,-0.427
-0.881,0.345,-0.223,-0.061,0.305,-0.488
-0.882,0.344,-0.223,-0.061,0.183,-0.305
-0.882,0.346,-0.222,0.0,0.366,-0.366
-0.88,0.348,-0.223,0.183,0.427,-0.244
-0.881,0.347,-0.222,0.305,0.305,-0.305
-0.88,0.349,-0.222,0.732,0.244,-0.427
-0.879,0.35,-0.224,0.061,0.305,-0.305
-0.878,0.35,-0.223,-0.122,0.427,-0.305
-0.88,0.351,-0.224,-0.183,0.488,-0.305
-0.88,0.35,-0.224,-0.122,0.671,-0.366
-0.88,0.349,-0.223,-0.183,0.732,-0.366
-0.88,0.349,-0.222,-0.244,0.671,-0.305
-0.88,0.35,-0.221,-0.244,0.427,-0.244
-0.88,0.35,-0.223,-0.122,0.549,-0.366
-0.88,0.349,-0.222,-0.061,0.61,-0.244
-0.879,0.349,-0.223,-0.366,0.61,-0.305
-0.88,0.351,-0.223,-0.488,0.61,-0.488
-0.88,0.351,-0.221,-0.305,0.732,-0.366
-0.88,0.35,-0.221,-0.427,0.671,-0.427
-0.88,0.35,-0.221,-0.122,0.671,-0.427
-0.88,0.351,-0.222,-0.061,0.61,-0.366
-0.879,0.353,-0.221,-0.122,0.61,-0.427
-0.877,0.355,-0.221,-0.488,0.671,-0.488
-0.879,0.351,-0.223,0.244,0.854,-0.549
-0.881,0.349,-0.224,0.0,0.549,-0.549
-0.881,0.347,-0.223,-0.122,0.671,-0.366
-0.881,0.348,-0.222,-0.305,0.671,-0.244
-0.88,0.351,-0.223,-0.427,0.61,-0.244
-0.879,0.351,-0.222,-0.488,0.854,-0.244
-0.879,0.351,-0.221,-0.183,0.793,-0.061
-0.878,0.35,-0.22,-0.244,0.671,-0.183
-0.879,0.351,-0.221,0.0,0.427,-0.122
-0.879,0.35,-0.223,0.0,0.366,-0.061
-0.881,0.349,-0.223,0.183,0.427,-0.061
-0.88,0.347,-0.225,0.183,0.427,-0.061
-0.878,0.35,-0.223,-0.366,0.61,-0.122
-0.878,0.351,-0.223,-0.61,0.732,-0.061
-0.879,0.353,-0.221,-0.427,0.61,-0.061
-0.879,0.355,-0.221,-0.61,0.671,-0.183
-0.88,0.35,-0.22,0.366,0.488,0.061
-0.88,0.349,-0.222,0.61,0.0,0.122
-0.88,0.349,-0.223,0.427,0.061,0.183
-0.88,0.35,-0.224,0.244,0.061,0.122
-0.879,0.349,-0.221,0.122,0.061,0.183
-0.879,0.35,-0.223,0.0,0.427,0.0
-0.879,0.35,-0.223,-0.061,0.427,0.183
-0.88,0.351,-0.222,0.061,0.122,0.122
-0.879,0.351,-0.222,0.305,0.366,0.122

-0.88,0.348,-0.223,0.488,0.122,0.061
-0.88,0.348,-0.223,0.244,0.244,-0.183
-0.88,0.348,-0.223,-0.061,0.244,-0.122
-0.879,0.35,-0.223,0.0,0.305,0.0
-0.88,0.351,-0.223,0.061,0.305,0.122
-0.879,0.35,-0.224,-0.244,0.488,0.0
-0.879,0.35,-0.223,0.183,0.305,0.0
-0.881,0.346,-0.223,0.244,0.0,-0.122
-0.881,0.345,-0.223,0.427,0.061,-0.061
-0.88,0.348,-0.224,0.122,0.0,-0.061
-0.879,0.349,-0.225,-0.244,0.244,-0.183
-0.879,0.348,-0.225,-0.305,0.61,-0.244
-0.881,0.349,-0.224,-0.183,0.488,-0.366
-0.881,0.349,-0.223,-0.183,0.366,-0.183
-0.879,0.349,-0.223,-0.366,0.488,-0.061
-0.878,0.348,-0.224,-0.183,0.549,-0.122
-0.88,0.349,-0.226,-0.061,0.366,-0.244
-0.88,0.348,-0.225,-0.061,0.305,-0.244
-0.88,0.349,-0.226,-0.366,0.305,-0.305
-0.879,0.349,-0.224,-0.244,0.366,-0.183
-0.88,0.348,-0.223,-0.122,0.732,-0.244
-0.879,0.347,-0.224,0.061,0.488,-0.305
-0.88,0.348,-0.224,-0.122,0.549,-0.183
-0.88,0.348,-0.225,-0.122,0.366,-0.244
-0.879,0.348,-0.226,-0.183,0.244,-0.366
-0.88,0.351,-0.226,-0.305,0.671,-0.244
-0.877,0.352,-0.225,0.0,0.305,-0.305
-0.879,0.352,-0.224,-0.122,0.183,-0.427
-0.879,0.351,-0.223,0.122,0.427,-0.427
-0.88,0.348,-0.224,0.244,0.366,-0.427
-0.88,0.347,-0.224,0.305,0.366,-0.427
-0.879,0.352,-0.229,-0.549,0.549,-0.854
-0.881,0.345,-0.229,0.305,0.366,-0.549
-0.88,0.35,-0.225,-0.061,0.549,-0.549
-0.88,0.35,-0.227,-0.366,0.732,-0.427
-0.88,0.352,-0.224,-0.427,0.366,-0.488
-0.879,0.353,-0.224,0.244,0.671,-0.244
-0.878,0.352,-0.224,0.122,0.793,-0.244
-0.878,0.352,-0.224,0.061,0.61,-0.183
-0.878,0.352,-0.224,-0.061,0.671,-0.244
-0.878,0.353,-0.225,0.0,0.488,-0.183
-0.878,0.353,-0.224,0.061,0.427,-0.427
-0.879,0.352,-0.224,0.122,0.427,-0.488
-0.879,0.351,-0.223,0.0,0.427,-0.488
-0.88,0.351,-0.224,0.061,0.549,-0.366
-0.879,0.35,-0.225,0.0,0.488,-0.427
-0.878,0.35,-0.224,0.0,0.549,-0.305
-0.88,0.351,-0.225,-0.122,0.549,-0.366
-0.88,0.35,-0.225,0.122,0.366,-0.305
-0.879,0.352,-0.224,0.305,0.488,-0.366
-0.879,0.352,-0.224,0.183,0.244,-0.366
-0.877,0.351,-0.223,0.122,0.366,-0.427
-0.877,0.352,-0.223,-0.122,0.244,-0.427
-0.879,0.352,-0.223,-0.122,0.305,-0.549
-0.878,0.353,-0.224,0.122,0.244,-0.488
-0.879,0.353,-0.224,0.183,0.305,-0.427
-0.878,0.351,-0.227,0.122,0.366,-0.488
-0.877,0.351,-0.225,0.0,0.305,-0.427
-0.879,0.353,-0.224,-0.122,0.549,-0.305
-0.877,0.355,-0.224,-0.549,0.549,-0.366
-0.878,0.351,-0.225,0.122,0.366,-0.427
-0.878,0.355,-0.226,-0.244,0.366,-0.61
-0.879,0.351,-0.226,0.183,0.366,-0.549
-0.878,0.351,-0.226,0.305,0.244,-0.427
-0.879,0.349,-0.225,0.061,0.427,-0.366
-0.88,0.35,-0.226,-0.061,0.366,-0.366
-0.878,0.351,-0.226,-0.122,0.244,-0.244
-0.877,0.353,-0.225,-0.061,0.549,-0.488
-0.877,0.353,-0.226,0.305,0.427,-0.427
-0.878,0.351,-0.227,0.183,0.305,-0.427
-0.877,0.349,-0.225,-0.061,0.427,-0.305
-0.879,0.35,-0.227,-0.061,0.488,-0.549
-0.879,0.351,-0.226,-0.183,0.366,-0.549
-0.876,0.353,-0.225,-0.122,0.732,-0.427
-0.878,0.353,-0.225,0.061,0.671,-0.488
-0.876,0.354,-0.224,0.061,0.183,-0.488
-0.877,0.355,-0.226,0.183,0.305,-0.366
-0.875,0.356,-0.227,0.366,0.305,-0.366
-0.878,0.353,-0.228,-0.122,0.305,-0.305
-0.878,0.352,-0.227,-0.244,0.366,-0.366
-0.877,0.352,-0.226,-0.244,0.488,-0.61
-0.876,0.356,-0.224,-0.671,0.61,-0.427
-0.876,0.356,-0.224,-0.61,0.488,-0.366
-0.877,0.356,-0.224,0.0,0.244,-0.183
-0.878,0.356,-0.223,0.061,0.183,-0.305
-0.877,0.354,-0.224,0.122,0.061,-0.183
-0.877,0.354,-0.224,0.122,0.061,-0.305
-0.877,0.354,-0.226,-0.244,0.366,-0.183
-0.876,0.355,-0.225,-0.488,0.488,-0.366
-0.877,0.356,-0.226,-0.732,0.488,-0.183
-0.876,0.355,-0.226,-0.671,0.488,-0.244
-0.877,0.354,-0.224,-0.366,0.427,-0.122
-0.876,0.352,-0.225,-0.061,0.183,-0.061
-0.88,0.353,-0.225,-0.061,0.061,0.061
-0.876,0.36,-0.227,-0.671,0.366,-0.183
-0.875,0.359,-0.226,-0.244,0.549,-0.244
-0.876,0.353,-0.227,-0.244,0.549,-0.183
-0.878,0.353,-0.226,-0.366,0.427,-0.122
-0.876,0.354,-0.226,-0.488,0.305,-0.183
-0.878,0.354,-0.225,-0.427,0.305,-0.061
-0.876,0.355,-0.226,-0.183,0.244,0.0
-0.878,0.353,-0.228,0.488,-0.305,0.122
-0.879,0.353,-0.228,0.488,-0.366,0.0
-0.878,0.353,-0.228,0.488,-0.061,0.366
-0.876,0.354,-0.228,0.366,-0.061,0.183
-0.876,0.354,-0.227,0.366,-0.061,0.0
-0.878,0.354,-0.228,0.183,-0.183,-0.183
-0.879,0.352,-0.226,0.122,-0.244,-0.183
-0.877,0.352,-0.229,0.305,0.061,-0.183
-0.877,0.35,-0.229,0.305,0.0,-0.122
-0.879,0.35,-0.231,0.305,-0.122,-0.122
-0.878,0.351,-0.231,0.427,-0.183,-0.183
-0.878,0.352,-0.229,0.488,0.0,-0.061
-0.879,0.352,-0.229,0.366,0.0,-0.061
-0.878,0.352,-0.228,0.427,-0.183,-0.061
-0.876,0.352,-0.229,0.488,0.0,-0.183
-0.878,0.352,-0.229,0.244,0.0,-0.183
-0.878,0.354,-0.23,0.305,0.0,-0.366
-0.875,0.353,-0.23,0.183,0.122,-0.244

-0.877,0.352,-0.229,0.0,0.244,-0.244
-0.876,0.352,-0.228,-0.305,0.366,-0.366
-0.879,0.35,-0.229,0.183,0.244,-0.488
-0.879,0.348,-0.228,0.061,0.122,-0.305
-0.88,0.347,-0.229,0.0,0.183,-0.244
-0.882,0.343,-0.231,0.0,0.366,-0.061
-0.88,0.348,-0.232,-0.854,0.305,0.061
-0.874,0.355,-0.232,-1.343,0.732,-0.122
-0.871,0.357,-0.231,-1.221,0.671,-0.305
-0.876,0.36,-0.229,-0.854,0.732,-0.183
-0.876,0.362,-0.229,-0.916,0.61,-0.244
-0.872,0.358,-0.229,-0.488,0.61,-0.427
-0.874,0.357,-0.23,-0.427,0.61,-0.366
-0.878,0.355,-0.231,-0.549,0.488,-0.427
-0.876,0.352,-0.231,-0.732,0.793,-0.244
-0.877,0.354,-0.231,-0.916,0.854,-0.366
-0.875,0.356,-0.229,-0.732,0.61,-0.183
-0.877,0.354,-0.229,-0.122,0.549,-0.244
-0.876,0.353,-0.229,-0.122,0.427,-0.183
-0.876,0.354,-0.232,-0.488,0.488,-0.305
-0.875,0.353,-0.232,-0.61,0.488,-0.366
-0.877,0.352,-0.229,-0.488,0.854,-0.122
-0.877,0.35,-0.229,-0.061,0.427,-0.183
-0.875,0.358,-0.231,-0.549,0.549,-0.122
-0.874,0.359,-0.23,-0.427,0.488,0.061
-0.873,0.362,-0.23,-0.244,0.427,-0.122
-0.873,0.363,-0.23,0.183,0.305,-0.183
-0.875,0.358,-0.23,0.61,0.244,-0.061
-0.876,0.357,-0.229,0.671,0.122,-0.122
-0.876,0.353,-0.229,0.732,0.183,0.061
-0.878,0.351,-0.232,0.549,0.061,0.0
-0.879,0.352,-0.232,0.366,0.183,0.0
-0.876,0.353,-0.23,0.427,0.305,0.0
-0.876,0.353,-0.231,0.61,0.366,0.122
-0.877,0.352,-0.23,0.671,0.183,0.0
-0.878,0.351,-0.231,0.61,0.427,-0.061
-0.878,0.349,-0.231,0.244,0.488,-0.183
-0.876,0.353,-0.233,0.0,0.244,0.0
-0.876,0.352,-0.23,0.183,0.671,0.244
-0.877,0.354,-0.231,0.183,0.488,0.122
-0.877,0.353,-0.231,0.427,0.366,-0.122
-0.876,0.353,-0.23,0.549,0.427,-0.061
-0.878,0.349,-0.232,0.366,0.549,0.0
-0.878,0.351,-0.232,0.0,0.366,-0.244
-0.877,0.351,-0.235,-0.549,0.793,-0.244
-0.876,0.352,-0.234,-0.671,1.099,-0.366
-0.876,0.353,-0.231,-0.793,1.16,-0.061
-0.876,0.354,-0.229,-0.61,1.343,-0.061
-0.876,0.352,-0.227,0.0,0.977,0.0
-0.878,0.354,-0.228,0.183,0.671,0.0
-0.877,0.352,-0.228,0.244,0.732,-0.061
-0.875,0.353,-0.231,-0.061,0.61,-0.061
-0.875,0.353,-0.233,-0.305,0.977,0.0
-0.876,0.354,-0.232,-0.427,0.977,0.0
-0.878,0.354,-0.23,-0.61,1.221,0.0
-0.876,0.353,-0.228,-0.61,1.221,0.061
-0.879,0.353,-0.226,-0.244,0.854,0.0
-0.878,0.355,-0.226,-0.122,0.793,-0.122
-0.877,0.353,-0.226,0.183,0.793,0.0
-0.877,0.354,-0.229,-0.183,0.854,-0.183
-0.876,0.354,-0.229,0.0,0.793,0.0
-0.877,0.353,-0.23,-0.183,1.038,0.061
-0.878,0.352,-0.227,-0.061,0.916,0.061
-0.877,0.352,-0.226,-0.061,0.793,0.0
-0.878,0.354,-0.224,0.061,0.732,0.0
-0.878,0.352,-0.226,0.305,0.61,-0.061
-0.879,0.354,-0.227,0.122,0.549,0.0
-0.877,0.353,-0.228,0.061,0.916,0.061
-0.877,0.353,-0.226,0.366,0.854,0.0
-0.879,0.351,-0.226,0.305,0.61,0.061
-0.879,0.351,-0.225,0.366,0.671,0.0
-0.88,0.351,-0.225,0.305,0.732,0.0
-0.878,0.351,-0.225,0.427,0.488,0.0
-0.877,0.352,-0.226,0.183,0.549,0.183
-0.879,0.352,-0.226,0.061,0.549,0.122
-0.878,0.353,-0.227,0.183,0.549,0.061
-0.877,0.353,-0.226,0.366,0.61,0.061
-0.878,0.352,-0.224,0.549,0.671,0.122
-0.879,0.351,-0.224,0.488,0.366,-0.061
-0.879,0.352,-0.225,0.244,0.366,0.061
-0.879,0.352,-0.225,0.183,0.488,0.061
-0.878,0.353,-0.226,-0.061,0.427,0.122
-0.879,0.351,-0.227,0.0,0.488,0.183
-0.878,0.351,-0.227,0.061,0.549,0.305
-0.878,0.352,-0.226,0.244,0.671,0.244
-0.88,0.35,-0.224,0.183,0.488,0.183
-0.878,0.352,-0.224,0.244,0.427,0.122
-0.878,0.353,-0.225,0.305,0.366,0.305
-0.878,0.353,-0.226,0.366,0.366,0.061
-0.878,0.352,-0.227,0.183,0.366,0.122
-0.879,0.351,-0.228,0.122,0.549,0.122
-0.879,0.351,-0.227,-0.061,0.61,0.122
-0.879,0.35,-0.227,-0.061,0.732,0.122
-0.879,0.349,-0.224,0.061,0.61,0.061
-0.88,0.349,-0.225,0.122,0.427,0.122
-0.879,0.349,-0.225,0.183,0.427,0.0
-0.879,0.35,-0.226,0.0,0.549,-0.061
-0.879,0.349,-0.227,-0.061,0.488,-0.061
-0.879,0.351,-0.229,-0.183,0.671,-0.244
-0.878,0.35,-0.228,-0.366,0.793,-0.183
-0.88,0.35,-0.228,-0.732,0.793,-0.305
-0.88,0.351,-0.226,-0.854,0.793,-0.183
-0.88,0.351,-0.222,-0.488,0.793,-0.122
-0.88,0.351,-0.224,-0.427,0.732,-0.061
-0.879,0.349,-0.225,0.122,0.488,-0.183
-0.879,0.35,-0.225,0.0,0.427,-0.122
-0.877,0.351,-0.226,-0.122,0.305,-0.122
-0.877,0.352,-0.227,-0.061,0.244,-0.305
-0.877,0.351,-0.226,-0.061,0.549,-0.122
-0.878,0.351,-0.225,-0.061,0.732,-0.305
-0.88,0.348,-0.223,-0.122,0.671,-0.244
-0.88,0.346,-0.224,0.0,0.671,-0.305
-0.882,0.347,-0.224,0.122,0.488,-0.183
-0.881,0.348,-0.226,-0.183,0.427,-0.183
-0.879,0.348,-0.227,-0.305,0.793,-0.183
-0.879,0.35,-0.224,-0.183,0.671,-0.305
-0.879,0.352,-0.225,-0.183,0.488,-0.244
-0.879,0.353,-0.224,-0.122,0.427,-0.061
-0.878,0.353,-0.224,-0.122,0.488,0.0

-0.879,0.35,-0.225,0.244,0.183,-0.244
-0.876,0.351,-0.225,0.122,0.61,-0.305
-0.878,0.353,-0.225,0.0,0.488,-0.366
-0.879,0.352,-0.226,0.244,0.427,-0.183
-0.879,0.35,-0.225,0.122,0.305,-0.366
-0.879,0.349,-0.226,0.061,0.244,-0.366
-0.88,0.348,-0.225,0.183,0.488,-0.183
-0.879,0.349,-0.225,0.0,0.366,-0.122
-0.879,0.35,-0.225,-0.183,0.488,-0.183
-0.88,0.351,-0.224,-0.061,0.244,-0.305
-0.879,0.351,-0.224,0.061,0.305,-0.244
-0.879,0.352,-0.224,-0.122,0.366,-0.305
-0.879,0.352,-0.224,0.0,0.366,-0.305
-0.878,0.352,-0.225,-0.061,0.427,-0.122
-0.879,0.352,-0.225,-0.366,0.488,-0.305
-0.879,0.351,-0.225,0.0,0.427,-0.183
-0.879,0.35,-0.225,-0.122,0.244,-0.183
-0.88,0.35,-0.226,-0.122,0.366,-0.183
-0.879,0.35,-0.225,-0.366,0.427,0.122
-0.88,0.352,-0.225,-0.061,0.427,-0.061
-0.878,0.352,-0.225,0.061,0.366,-0.244
-0.878,0.352,-0.226,-0.183,0.366,-0.244
-0.877,0.352,-0.226,-0.183,0.366,-0.366
-0.879,0.351,-0.228,-0.244,0.488,-0.305
-0.88,0.351,-0.226,-0.061,0.183,-0.366
-0.88,0.349,-0.225,-0.244,0.427,-0.244
-0.878,0.35,-0.224,-0.305,0.61,-0.122
-0.878,0.352,-0.227,-0.244,0.183,-0.305
-0.877,0.352,-0.226,0.0,0.0,-0.305
-0.878,0.352,-0.226,0.061,0.305,-0.244
-0.879,0.35,-0.226,0.0,0.366,-0.122
-0.879,0.35,-0.226,0.0,0.244,-0.244
-0.88,0.35,-0.227,-0.122,0.244,-0.183
-0.879,0.349,-0.226,0.0,0.305,-0.305
-0.88,0.349,-0.226,0.061,0.366,-0.366
-0.879,0.35,-0.226,-0.183,0.427,-0.366
-0.877,0.353,-0.227,-0.122,0.366,-0.183
-0.877,0.355,-0.226,-0.061,0.244,-0.183
-0.878,0.351,-0.227,0.427,0.305,-0.183
-0.879,0.352,-0.228,0.0,0.244,-0.183
-0.879,0.352,-0.227,-0.122,0.366,-0.122
-0.876,0.353,-0.226,-0.122,0.244,-0.061
-0.878,0.352,-0.225,-0.061,0.122,-0.122
-0.876,0.351,-0.226,-0.122,0.183,-0.122
-0.879,0.352,-0.227,0.061,0.122,-0.061
-0.879,0.351,-0.228,0.122,0.061,-0.183
-0.879,0.348,-0.227,0.122,0.305,-0.061
-0.88,0.349,-0.227,-0.183,0.305,0.0
-0.879,0.35,-0.227,-0.244,0.488,-0.122
-0.877,0.35,-0.227,-0.488,0.488,-0.183
-0.878,0.351,-0.228,-0.244,0.427,-0.122
-0.878,0.351,-0.228,-0.183,0.366,-0.061
-0.877,0.351,-0.228,-0.305,0.427,-0.122
-0.878,0.352,-0.228,-0.366,0.427,-0.122
-0.878,0.352,-0.228,-0.244,0.366,-0.061
-0.878,0.351,-0.229,-0.305,0.366,-0.122
-0.878,0.349,-0.228,-0.427,0.427,0.0
-0.879,0.35,-0.227,-0.244,0.305,0.122
-0.879,0.35,-0.226,-0.061,0.122,-0.061
-0.878,0.349,-0.227,-0.061,0.244,-0.061
-0.879,0.349,-0.228,-0.183,0.244,-0.122
-0.88,0.348,-0.229,-0.183,0.366,0.0
-0.879,0.348,-0.228,0.0,0.366,0.061
-0.879,0.347,-0.228,-0.183,0.366,0.0
-0.88,0.348,-0.228,0.061,0.366,0.061
-0.88,0.348,-0.229,0.0,0.244,0.183
-0.88,0.349,-0.229,-0.244,0.427,0.183
-0.879,0.351,-0.228,-0.427,0.549,0.061
-0.878,0.353,-0.227,-0.427,0.488,0.061
-0.877,0.355,-0.226,-0.183,0.366,0.061
-0.877,0.355,-0.227,0.061,0.122,-0.061
-0.878,0.352,-0.229,0.366,0.305,0.0
-0.877,0.348,-0.229,0.366,0.427,-0.122
-0.88,0.345,-0.231,-0.305,0.305,-0.122
-0.88,0.349,-0.229,-0.244,0.549,-0.061
-0.88,0.349,-0.227,-0.122,0.488,0.061
-0.879,0.349,-0.227,0.061,0.488,0.122
-0.878,0.349,-0.226,0.244,0.61,0.122
-0.88,0.349,-0.228,0.061,0.244,0.0
-0.879,0.35,-0.229,-0.122,0.366,0.061
-0.878,0.349,-0.228,-0.061,0.732,0.061
-0.879,0.349,-0.229,-0.061,0.732,0.0
-0.879,0.348,-0.229,0.0,0.427,-0.061
-0.879,0.348,-0.227,-0.244,0.549,-0.061
-0.879,0.351,-0.229,-0.122,0.305,-0.122
-0.878,0.351,-0.227,0.0,0.366,0.0
-0.879,0.35,-0.228,0.0,0.488,0.061
-0.88,0.348,-0.229,0.244,0.427,0.061
-0.88,0.347,-0.229,-0.183,0.366,0.0
-0.879,0.349,-0.228,-0.183,0.732,0.122
-0.88,0.348,-0.229,-0.244,0.732,0.0
-0.879,0.349,-0.228,-0.305,0.732,0.061
-0.88,0.347,-0.228,0.244,0.305,0.061
-0.88,0.347,-0.228,0.061,0.366,0.183
-0.88,0.346,-0.229,0.0,0.427,0.122
-0.879,0.346,-0.228,-0.061,0.427,-0.061
-0.879,0.346,-0.227,-0.122,0.427,0.061
-0.881,0.346,-0.227,-0.061,0.732,0.305
-0.879,0.346,-0.227,-0.122,0.732,0.183
-0.88,0.348,-0.226,-0.183,0.61,0.061
-0.88,0.348,-0.227,-0.122,0.61,-0.061
-0.879,0.349,-0.226,-0.244,0.61,0.061
-0.88,0.349,-0.226,-0.183,0.732,-0.061
-0.88,0.347,-0.228,-0.122,0.854,0.061
-0.88,0.348,-0.226,-0.305,0.977,-0.122
-0.88,0.349,-0.224,-0.305,0.793,-0.122
-0.88,0.348,-0.224,0.061,0.732,-0.183
-0.88,0.348,-0.224,0.183,0.427,-0.183
-0.88,0.349,-0.227,0.366,0.427,0.0
-0.879,0.349,-0.227,0.244,0.305,0.0
-0.879,0.349,-0.226,0.122,0.244,-0.183
-0.881,0.349,-0.228,0.183,0.366,-0.244
-0.882,0.345,-0.226,0.305,0.427,-0.244
-0.881,0.343,-0.227,0.427,0.488,-0.305
-0.883,0.342,-0.225,0.122,0.488,0.0
-0.882,0.343,-0.226,-0.061,0.427,-0.122
-0.881,0.345,-0.226,0.061,0.61,0.061
-0.879,0.345,-0.227,0.122,0.305,-0.122
-0.88,0.344,-0.226,0.122,0.366,-0.122

-0.88,0.349,-0.224,-0.305,0.61,-0.183
-0.881,0.348,-0.225,-0.244,0.549,-0.183
-0.88,0.349,-0.225,0.122,0.488,-0.061
-0.88,0.349,-0.227,0.122,0.427,0.061
-0.879,0.349,-0.226,0.366,0.366,-0.122
-0.88,0.348,-0.225,0.183,0.366,-0.122
-0.88,0.347,-0.226,0.488,0.244,-0.244
-0.881,0.345,-0.224,0.122,0.549,-0.183
-0.88,0.345,-0.226,-0.122,0.427,-0.122
-0.882,0.345,-0.226,0.0,0.427,-0.183
-0.88,0.346,-0.226,0.061,0.549,-0.305
-0.88,0.347,-0.226,0.061,0.427,-0.427
-0.881,0.347,-0.226,0.0,0.366,-0.366
-0.88,0.346,-0.227,0.0,0.549,-0.244
-0.88,0.347,-0.226,-0.183,0.549,-0.244
-0.88,0.347,-0.226,-0.061,0.427,-0.183
-0.879,0.347,-0.225,-0.061,0.488,-0.305
-0.88,0.348,-0.227,-0.061,0.61,-0.305
-0.879,0.349,-0.226,-0.122,0.488,-0.305
-0.88,0.349,-0.226,-0.183,0.61,-0.366
-0.879,0.35,-0.225,-0.244,0.549,-0.244
-0.879,0.349,-0.224,-0.183,0.427,-0.366
-0.879,0.349,-0.224,0.183,0.183,-0.183
-0.879,0.348,-0.226,-0.061,0.244,-0.244
-0.881,0.348,-0.226,0.305,0.427,-0.244
-0.88,0.345,-0.227,-0.061,0.427,-0.122
-0.88,0.345,-0.226,-0.305,0.61,-0.183
-0.881,0.345,-0.226,-0.244,0.488,-0.305
-0.882,0.345,-0.226,-0.183,0.61,-0.244
-0.88,0.348,-0.225,-0.305,0.488,-0.244
-0.879,0.349,-0.225,-0.427,0.488,0.061
-0.879,0.351,-0.225,-0.183,0.427,-0.244
-0.879,0.349,-0.226,0.305,0.305,0.0
-0.879,0.349,-0.226,0.427,0.427,0.061
-0.88,0.346,-0.227,0.305,0.427,0.061
-0.879,0.344,-0.226,0.061,0.549,-0.061
-0.882,0.345,-0.227,0.122,0.366,-0.061
-0.883,0.345,-0.228,0.0,0.427,-0.061
-0.88,0.347,-0.227,-0.122,0.549,0.0
-0.88,0.347,-0.227,-0.305,0.793,-0.061
-0.881,0.346,-0.227,0.122,0.366,0.0
-0.88,0.346,-0.228,0.061,0.427,-0.061
-0.883,0.345,-0.226,0.061,0.549,0.0
-0.88,0.347,-0.227,-0.183,0.549,0.0
-0.878,0.348,-0.225,-0.183,0.61,0.061
-0.879,0.35,-0.225,-0.244,0.488,0.0
-0.879,0.352,-0.224,-0.183,0.488,-0.122
-0.878,0.351,-0.225,0.244,0.61,-0.061
-0.879,0.35,-0.226,0.244,0.671,-0.061
-0.88,0.347,-0.228,0.183,0.488,0.061
-0.881,0.347,-0.226,0.183,0.488,-0.061
-0.881,0.346,-0.226,0.305,0.427,-0.061
-0.881,0.346,-0.227,0.244,0.427,0.0
-0.88,0.345,-0.226,0.0,0.244,0.0
-0.879,0.346,-0.226,-0.183,0.549,0.061
-0.88,0.347,-0.226,-0.183,0.549,0.122
-0.88,0.348,-0.225,-0.061,0.61,-0.061
-0.88,0.347,-0.226,0.366,0.549,-0.061
-0.881,0.348,-0.227,0.183,0.549,0.122
-0.88,0.348,-0.227,0.183,0.732,0.183
-0.88,0.346,-0.227,-0.061,0.671,0.183
-0.88,0.346,-0.226,-0.183,0.488,0.061
-0.88,0.347,-0.226,0.0,0.427,0.0
-0.88,0.348,-0.226,0.0,0.427,0.0
-0.88,0.347,-0.226,0.244,0.427,0.122
-0.881,0.345,-0.226,0.122,0.366,0.183
-0.88,0.346,-0.227,0.061,0.549,0.122
-0.879,0.347,-0.226,-0.122,0.366,0.122
-0.881,0.347,-0.224,0.061,0.305,0.183
-0.88,0.346,-0.225,0.061,0.427,0.244
-0.881,0.346,-0.226,0.122,0.366,0.244
-0.881,0.346,-0.227,0.0,0.549,0.122
-0.879,0.347,-0.226,-0.122,0.427,0.244
-0.879,0.347,-0.227,-0.183,0.427,0.0
-0.881,0.348,-0.226,-0.122,0.671,0.122
-0.881,0.346,-0.226,0.0,0.549,0.183
-0.88,0.343,-0.226,0.122,0.366,0.122
-0.883,0.343,-0.226,0.122,0.183,0.183
-0.883,0.343,-0.227,-0.061,0.305,0.183
-0.882,0.343,-0.227,0.061,0.427,0.061
-0.881,0.342,-0.228,-0.061,0.61,0.061
-0.88,0.342,-0.228,-0.305,0.61,0.122
-0.881,0.344,-0.227,-0.305,0.61,0.061
-0.882,0.345,-0.225,-0.183,0.488,0.122
-0.882,0.342,-0.226,0.061,0.549,0.244
-0.883,0.343,-0.226,-0.244,0.427,0.061
-0.88,0.342,-0.226,-0.305,0.671,0.122
-0.88,0.346,-0.226,-0.366,0.61,0.061
-0.881,0.345,-0.226,-0.305,0.549,0.183
-0.881,0.343,-0.225,0.061,0.671,0.0
-0.884,0.343,-0.227,0.0,0.366,-0.061
-0.882,0.342,-0.226,-0.061,0.427,0.244
-0.881,0.342,-0.226,-0.122,0.366,0.183
-0.881,0.345,-0.226,-0.244,0.488,0.122
-0.881,0.345,-0.224,-0.244,0.549,0.061
-0.881,0.344,-0.225,-0.183,0.366,0.0
-0.88,0.345,-0.224,-0.061,0.427,0.183
-0.88,0.344,-0.226,0.122,0.305,0.0
-0.881,0.344,-0.226,-0.366,0.549,-0.122
-0.882,0.342,-0.227,-0.244,0.61,-0.183
-0.882,0.342,-0.226,-0.122,0.549,-0.122
-0.883,0.344,-0.226,-0.061,0.427,0.0
-0.883,0.344,-0.225,0.061,0.61,0.061
-0.882,0.343,-0.225,0.122,0.427,0.244
-0.883,0.343,-0.225,0.305,0.183,0.122
-0.881,0.344,-0.225,0.244,0.183,0.0
-0.881,0.343,-0.225,0.183,0.366,0.122
-0.883,0.343,-0.225,0.244,0.488,0.122
-0.882,0.342,-0.227,0.305,0.122,0.061
-0.883,0.341,-0.227,0.061,0.549,0.122
-0.882,0.341,-0.227,0.122,0.488,0.122
-0.882,0.342,-0.227,0.183,0.305,0.0
-0.882,0.342,-0.225,0.305,0.488,0.061
-0.883,0.342,-0.225,0.244,0.427,0.061
-0.882,0.341,-0.225,0.122,0.488,0.061
-0.882,0.34,-0.226,0.366,0.549,0.061
-0.883,0.34,-0.226,0.061,0.366,0.0
-0.883,0.34,-0.226,0.183,0.488,0.122
-0.882,0.341,-0.226,-0.061,0.61,0.0

-0.883,0.341,-0.227,0.305,0.244,0.0
-0.882,0.34,-0.227,0.366,0.244,-0.183
-0.882,0.34,-0.226,0.427,0.366,-0.061
-0.882,0.34,-0.227,0.305,0.305,-0.122
-0.882,0.341,-0.227,0.122,0.427,-0.061
-0.882,0.342,-0.229,-0.549,0.732,-0.244
-0.882,0.343,-0.227,-0.61,0.793,-0.305
-0.881,0.343,-0.226,-0.366,0.732,-0.244
-0.883,0.342,-0.227,-0.244,0.61,-0.427
-0.885,0.339,-0.226,0.0,0.488,-0.183
-0.885,0.339,-0.226,0.0,0.549,-0.244
-0.883,0.339,-0.226,-0.305,0.793,-0.427
-0.882,0.342,-0.227,-0.427,0.854,-0.305
-0.882,0.343,-0.228,-0.549,0.732,-0.549
-0.881,0.344,-0.224,-0.732,0.977,-0.488
-0.881,0.344,-0.225,-0.427,0.793,-0.305
-0.883,0.342,-0.225,-0.122,0.488,-0.61
-0.883,0.34,-0.224,-0.122,0.793,-0.549
-0.883,0.34,-0.225,-0.244,0.61,-0.549
-0.883,0.339,-0.225,-0.183,0.793,-0.427
-0.884,0.342,-0.226,-0.488,0.854,-0.427
-0.883,0.341,-0.226,-0.61,0.793,-0.427
-0.882,0.344,-0.226,-0.793,1.099,-0.305
-0.883,0.346,-0.224,-0.671,1.282,-0.305
-0.881,0.342,-0.224,0.061,0.977,-0.183
-0.883,0.341,-0.222,0.305,0.671,-0.183
-0.882,0.342,-0.224,-0.122,0.488,-0.244
-0.882,0.343,-0.225,-0.122,0.671,-0.305
-0.882,0.342,-0.224,-0.122,0.61,-0.305
-0.883,0.342,-0.225,-0.366,0.854,-0.183
-0.882,0.344,-0.225,-0.488,0.793,-0.122
-0.881,0.343,-0.225,-0.671,0.732,-0.122
-0.88,0.348,-0.223,-0.305,0.549,-0.183
-0.881,0.345,-0.224,0.0,0.488,-0.183
-0.882,0.342,-0.219,0.732,0.488,0.061
-0.882,0.346,-0.22,0.061,0.122,-0.061
-0.883,0.343,-0.222,0.488,0.366,-0.305
-0.882,0.344,-0.222,0.122,0.488,-0.244
-0.883,0.343,-0.226,-0.183,0.671,-0.488
-0.882,0.343,-0.223,0.061,0.488,-0.366
-0.882,0.345,-0.223,-0.244,0.732,-0.427
-0.882,0.342,-0.222,0.122,0.61,-0.366
-0.883,0.344,-0.222,0.488,0.122,-0.183
-0.882,0.345,-0.223,0.427,0.0,-0.305
-0.881,0.344,-0.222,0.549,0.244,-0.183
-0.881,0.345,-0.223,0.488,0.122,-0.61
-0.882,0.342,-0.224,0.427,0.0,-0.549
-0.884,0.341,-0.224,0.183,0.244,-0.305
-0.884,0.341,-0.224,0.122,0.244,-0.366
-0.882,0.341,-0.224,0.122,0.305,-0.366
-0.882,0.341,-0.224,-0.061,0.61,-0.427
-0.883,0.344,-0.224,0.061,0.244,-0.488
-0.883,0.344,-0.223,0.0,0.244,-0.488
-0.881,0.346,-0.224,-0.183,0.305,-0.427
-0.881,0.346,-0.226,0.305,0.122,-0.427
-0.881,0.346,-0.225,0.183,0.061,-0.305
-0.882,0.344,-0.225,0.183,0.305,-0.305
-0.883,0.343,-0.224,0.183,0.488,-0.366
-0.882,0.344,-0.224,0.122,0.488,-0.183
-0.881,0.345,-0.225,-0.183,0.244,-0.244
-0.881,0.345,-0.226,-0.244,0.305,-0.183
-0.88,0.345,-0.226,-0.122,0.427,-0.244
-0.881,0.345,-0.226,-0.061,0.427,-0.183
-0.882,0.344,-0.224,-0.061,0.488,-0.061
-0.881,0.343,-0.225,-0.244,0.427,0.061
-0.881,0.343,-0.224,-0.61,0.549,-0.122
-0.882,0.346,-0.224,-0.549,0.671,-0.244
-0.881,0.346,-0.224,-0.549,0.732,-0.244
-0.882,0.346,-0.226,-0.305,0.732,-0.061
-0.881,0.345,-0.225,-0.671,0.793,-0.122
-0.881,0.346,-0.224,-0.61,0.793,-0.061
-0.88,0.349,-0.223,-0.671,0.549,-0.183
-0.88,0.348,-0.223,-0.61,0.427,-0.244
-0.882,0.347,-0.222,0.244,0.305,-0.061
-0.88,0.347,-0.223,0.122,0.244,-0.122
-0.882,0.344,-0.225,0.244,0.244,-0.183
-0.883,0.342,-0.226,0.305,0.305,-0.061
-0.885,0.339,-0.227,0.061,0.244,0.0
-0.884,0.34,-0.227,-0.183,0.488,-0.061
-0.881,0.347,-0.221,0.061,0.366,-0.122
-0.885,0.344,-0.224,0.671,0.305,-0.427
-0.883,0.343,-0.224,1.038,0.305,-0.244
-0.883,0.34,-0.224,0.488,0.366,0.061
-0.88,0.342,-0.226,0.0,0.366,0.0
-0.883,0.345,-0.226,-0.122,0.549,-0.183
-0.883,0.342,-0.222,0.244,0.488,-0.244
-0.883,0.339,-0.221,0.549,0.366,0.0
-0.883,0.34,-0.221,0.488,0.305,0.061
-0.881,0.344,-0.224,0.0,0.122,-0.122
-0.88,0.345,-0.226,-0.122,0.549,-0.244
-0.883,0.343,-0.223,-0.366,0.732,-0.366
-0.882,0.342,-0.222,-0.122,0.732,-0.488
-0.882,0.342,-0.221,0.061,0.427,-0.366
-0.882,0.342,-0.223,-0.122,0.305,-0.366
-0.882,0.343,-0.223,-0.183,0.366,-0.549
-0.881,0.343,-0.226,-0.305,0.549,-0.61
-0.882,0.343,-0.226,-0.488,0.488,-0.61
-0.881,0.347,-0.225,-0.732,0.671,-0.61
-0.88,0.348,-0.224,-0.793,0.671,-0.61
-0.88,0.348,-0.224,-0.366,0.732,-0.549
-0.88,0.348,-0.223,-0.366,0.793,-0.427
-0.881,0.345,-0.222,-0.244,0.549,-0.488
-0.882,0.344,-0.222,0.061,0.305,-0.427
-0.883,0.342,-0.222,-0.122,0.427,-0.244
-0.883,0.342,-0.224,-0.244,0.305,-0.366
-0.881,0.343,-0.224,-0.366,0.671,-0.061
-0.881,0.346,-0.224,-0.793,0.854,-0.427
-0.881,0.35,-0.224,-0.61,0.427,-0.488
-0.88,0.349,-0.224,-0.427,0.732,-0.366
-0.881,0.345,-0.221,-0.305,0.793,-0.244
-0.881,0.346,-0.221,-0.488,0.977,-0.244
-0.881,0.347,-0.221,-0.427,0.427,-0.305
-0.88,0.347,-0.221,-0.122,0.305,-0.244
-0.882,0.346,-0.225,0.061,0.244,-0.305
-0.881,0.346,-0.225,0.122,0.244,-0.366
-0.881,0.344,-0.225,-0.061,0.366,-0.244
-0.883,0.344,-0.225,-0.549,0.488,-0.244
-0.881,0.346,-0.224,-0.61,0.427,-0.305
-0.88,0.348,-0.222,-0.122,0.488,0.0

-0.881,0.346,-0.223,0.977,-0.183,-0.122
-0.882,0.344,-0.224,0.793,-0.122,-0.061
-0.882,0.343,-0.226,0.61,0.0,0.061
-0.881,0.343,-0.227,0.671,0.0,0.122
-0.881,0.344,-0.227,0.427,0.244,0.122
-0.88,0.344,-0.227,-0.244,0.549,-0.061
-0.882,0.344,-0.227,-0.488,0.549,-0.183
-0.882,0.345,-0.224,-0.549,0.671,-0.122
-0.882,0.344,-0.223,-0.366,0.61,-0.122
-0.881,0.345,-0.223,0.0,0.427,-0.061
-0.882,0.345,-0.223,0.122,0.366,-0.061
-0.882,0.344,-0.225,0.305,-0.061,15.564
-0.881,0.344,-0.226,0.427,0.061,-0.061
-0.882,0.346,-0.227,-0.061,0.488,0.0
-0.881,0.346,-0.225,-0.488,0.793,-0.061
-0.88,0.346,-0.223,-0.549,0.732,-0.183
-0.882,0.347,-0.223,-0.244,0.732,-0.183
-0.882,0.346,-0.222,0.122,0.427,0.122
-0.881,0.345,-0.224,0.122,0.366,-0.061
-0.882,0.344,-0.224,0.244,0.305,0.183
-0.881,0.345,-0.227,-0.061,0.427,-0.122
-0.881,0.344,-0.227,-0.183,0.427,0.0
-0.881,0.343,-0.225,-0.244,0.732,0.061
-0.883,0.344,-0.225,-0.305,0.549,0.122
-0.882,0.344,-0.223,0.0,0.61,0.061
-0.88,0.344,-0.223,-0.061,0.488,0.122
-0.882,0.346,-0.224,-0.183,0.549,0.061
-0.882,0.344,-0.225,-0.061,0.488,-0.061
-0.882,0.342,-0.225,-0.061,0.671,-0.061
-0.883,0.341,-0.226,-0.366,0.793,0.061
-0.883,0.345,-0.224,-0.366,0.732,0.244
-0.882,0.344,-0.224,-0.61,0.793,0.061
-0.882,0.346,-0.221,-0.244,0.793,0.0
-0.882,0.346,-0.221,0.061,0.549,-0.061
-0.882,0.344,-0.222,0.366,0.366,0.061
-0.881,0.343,-0.223,0.366,0.305,0.061
-0.882,0.343,-0.224,0.305,0.122,0.122
-0.884,0.342,-0.225,0.244,0.122,0.122
-0.883,0.341,-0.225,0.183,0.427,-0.061
-0.884,0.341,-0.225,0.0,0.427,-0.061
-0.883,0.344,-0.223,0.244,0.366,0.061
-0.883,0.343,-0.224,0.122,0.427,0.122
-0.882,0.343,-0.224,0.122,0.488,0.183
-0.882,0.343,-0.224,0.183,0.366,0.061
-0.882,0.343,-0.224,0.488,0.244,0.122
-0.883,0.343,-0.224,0.366,0.427,0.0
-0.882,0.343,-0.225,0.061,0.366,0.122
-0.882,0.343,-0.224,0.122,0.427,0.0
-0.882,0.344,-0.223,-0.061,0.671,0.0
-0.883,0.346,-0.223,-0.061,0.671,-0.183
-0.882,0.344,-0.221,0.061,0.61,-0.183
-0.884,0.343,-0.224,0.0,0.427,-0.122
-0.883,0.342,-0.225,0.122,0.488,-0.183
-0.884,0.34,-0.224,-0.122,0.427,0.061
-0.882,0.339,-0.224,-0.122,0.488,-0.122
-0.883,0.342,-0.223,-0.244,0.549,-0.061
-0.881,0.344,-0.222,-0.549,0.549,-0.122
-0.881,0.344,-0.222,0.061,0.488,-0.183
-0.882,0.342,-0.224,0.061,0.305,-0.244
-0.883,0.342,-0.224,0.183,0.305,-0.244
-0.884,0.34,-0.225,-0.061,0.427,-0.305
-0.883,0.341,-0.224,-0.488,0.61,-0.305
-0.883,0.341,-0.224,-0.549,0.671,-0.244
-0.883,0.341,-0.223,-0.366,0.793,-0.305
-0.882,0.343,-0.223,-0.305,0.61,-0.183
-0.883,0.343,-0.222,-0.244,0.61,-0.183
-0.881,0.345,-0.224,0.122,0.427,-0.183
-0.882,0.345,-0.223,-0.122,0.61,-0.061
-0.88,0.346,-0.223,-0.183,0.427,-0.122
-0.881,0.345,-0.222,0.122,0.244,-0.183
-0.882,0.346,-0.223,0.061,0.305,-0.305
-0.883,0.344,-0.222,0.061,0.305,-0.244
-0.884,0.34,-0.223,0.305,0.305,-0.183
-0.884,0.338,-0.224,0.122,0.244,-0.183
-0.884,0.339,-0.224,0.0,0.244,-0.183
-0.885,0.34,-0.224,-0.122,0.427,-0.305
-0.883,0.342,-0.223,-0.183,0.427,-0.183
-0.882,0.342,-0.223,-0.244,0.305,-0.183
-0.882,0.342,-0.223,0.122,0.305,-0.122
-0.883,0.342,-0.224,0.061,0.366,-0.244
-0.883,0.344,-0.225,0.0,0.427,-0.244
-0.882,0.344,-0.225,-0.061,0.366,-0.244
-0.883,0.344,-0.224,0.0,0.366,-0.183
-0.882,0.343,-0.224,-0.061,0.671,-0.061
-0.883,0.345,-0.222,-0.183,0.366,-0.183
-0.882,0.346,-0.223,0.183,0.305,0.0
-0.881,0.346,-0.223,0.183,0.366,-0.183
-0.883,0.341,-0.225,0.122,0.488,-0.122
-0.882,0.341,-0.224,0.183,0.427,-0.061
-0.884,0.34,-0.224,0.0,0.305,-0.122
-0.882,0.339,-0.224,0.0,0.61,-0.305
-0.884,0.34,-0.224,0.0,0.427,-0.122
-0.883,0.341,-0.223,-0.122,0.488,-0.122
-0.882,0.344,-0.224,0.122,0.305,-0.061
-0.882,0.343,-0.225,0.061,0.427,-0.122
-0.882,0.343,-0.225,0.122,0.366,-0.122
-0.883,0.343,-0.224,-0.244,0.549,-0.061
-0.883,0.344,-0.224,0.0,0.488,-0.061
-0.882,0.374,-0.223,-0.122,0.61,-0.244
-0.883,0.344,-0.223,-0.366,0.61,-0.122
-0.882,0.346,-0.223,-0.244,0.549,-0.122
-0.883,0.344,-0.224,0.244,0.488,0.0
-0.882,0.343,-0.224,0.183,0.427,0.122
-0.882,0.344,-0.225,0.061,0.488,0.0
-0.881,0.344,-0.225,0.0,0.366,0.0
-0.881,0.345,-0.223,0.061,0.244,0.0
-0.881,0.344,-0.224,0.122,0.366,0.061
-0.884,0.34,-0.224,-0.061,0.488,0.061
-0.883,0.34,-0.225,0.061,0.305,0.061
-0.883,0.341,-0.224,-0.122,0.244,0.122
-0.883,0.342,-0.224,0.0,0.366,0.244
-0.883,0.342,-0.224,-0.061,0.366,0.244
-0.882,0.342,-0.223,0.0,0.488,0.183
-0.882,0.342,-0.223,-0.061,0.488,0.122
-0.883,0.341,-0.223,0.122,0.244,0.122
-0.884,0.34,-0.225,0.183,0.366,0.061
-0.884,0.34,-0.224,0.061,0.366,0.061
-0.884,0.34,-0.226,0.061,0.244,0.0
-0.882,0.342,-0.223,-0.061,0.61,0.244

-0.882,0.344,-0.222,0.305,0.244,0.183
-0.883,0.343,-0.223,0.305,0.366,0.0
-0.882,0.342,-0.224,0.122,0.244,0.061
-0.882,0.341,-0.225,0.183,0.305,0.061
-0.883,0.341,-0.224,0.183,0.427,-0.183
-0.884,0.339,-0.226,0.122,0.366,-0.122
-0.884,0.339,-0.226,-0.183,0.488,-0.122
-0.885,0.338,-0.224,-15.625,0.549,-0.122
-0.884,0.339,-0.224,-0.122,0.427,0.0
-0.884,0.339,-0.224,-0.061,0.549,0.122
-0.883,0.34,-0.225,0.061,0.427,-0.061
-0.883,0.341,-0.225,0.183,0.427,-0.122
-0.885,0.34,-0.226,0.183,0.305,0.0
-0.883,0.338,-0.224,0.122,0.549,0.0
-0.883,0.34,-0.226,-0.061,0.61,-0.061
-0.885,0.34,-0.224,-0.183,0.488,-0.061
-0.884,0.34,-0.225,-0.061,0.549,-0.122
-0.885,0.339,-0.225,-0.061,0.549,0.0
-0.883,0.341,-0.225,0.183,0.61,0.0
-0.884,0.341,-0.226,0.0,0.671,0.122
-0.883,0.342,-0.226,0.061,0.732,0.122
-0.883,0.341,-0.224,0.183,0.549,0.0
-0.883,0.342,-0.221,0.0,0.793,0.061
-0.883,0.344,-0.223,-0.549,0.61,-0.183
