aX,aY,aZ,gX,gY,gZ
-0.88,-0.648,-0.031,28.32,15.259,35.095
-0.847,-0.72,-0.044,31.982,16.113,43.518
-0.806,-0.78,-0.057,33.508,16.785,52.612
-0.764,-0.815,-0.083,26.733,19.836,72.876
-0.721,-0.552,0.011,-2.808,24.475,88.928
-1.104,-0.007,0.104,-14.954,63.11,79.102
-1.312,-0.445,-0.224,59.265,45.776,92.468
-1.302,-0.583,-0.024,66.711,10.742,132.08
-1.385,-0.115,0.077,-58.167,3.662,133.972
-1.445,-0.53,-0.154,-21.729,13.489,128.174
-1.297,-0.342,0.091,-23.865,25.574,118.042
-1.161,-0.372,-0.073,-58.655,12.024,99.121
-1.0,-0.155,-0.101,-90.698,7.08,62.927
-0.868,0.069,0.083,-73.73,14.771,24.231
-0.532,0.328,0.056,-25.94,22.644,4.761
-0.111,0.754,-0.112,70.923,-5.31,-21.24
0.167,1.099,-0.091,131.104,-47.302,-81.177
0.085,-0.305,-0.944,130.554,-17.822,-103.271
-0.859,-1.878,-1.333,78.369,-46.448,-136.658
-1.368,0.235,-0.929,-21.118,22.522,-50.842
-0.105,0.356,-0.3,-13.123,-55.542,-90.759
-1.876,0.497,-0.647,74.097,-21.912,-118.713
-1.234,-0.251,-0.417,63.293,-47.058,-126.648
-1.598,0.345,-0.74,49.133,-38.757,-156.494
-1.836,-0.451,-0.648,30.884,-38.086,-208.069
-2.078,-1.587,0.023,-8.484,-5.31,-182.739
-1.398,-1.933,0.715,-44.556,-12.329,-137.634
-0.698,-1.406,0.338,2.197,27.466,-1.038
-0.24,-0.526,0.287,68.604,41.931,51.331
-0.174,-0.597,0.568,55.115,52.612,102.051
-0.431,-0.432,0.581,33.203,54.016,113.342
-2.577,-0.051,-1.083,42.786,6.348,199.829
-1.792,-0.379,-0.265,-69.763,61.829,237.061
-2.688,-0.167,-0.516,-134.094,56.03,245.85
-2.067,0.218,-0.357,-64.392,15.686,215.515
-1.304,0.67,-0.155,-73.303,8.484,159.79
-0.72,0.866,-0.086,-39.49,-10.437,84.106
-0.259,0.802,-0.381,8.972,-37.292,-66.772
0.228,0.907,-0.583,128.662,-33.813,-87.83
-0.092,-0.309,0.85,-68.176,34.485,-60.059
-0.037,-1.903,-1.01,-215.271,-64.88,14.648
-0.184,0.163,0.68,146.118,-117.249,-27.832
-3.604,-1.577,2.247,60.547,-130.676,45.593
1.344,2.475,-2.037,130.005,-51.758,7.568
-0.662,0.499,-0.682,64.026,3.54,-114.868
-2.259,-1.242,0.397,44.495,-172.363,-87.036
-1.295,0.125,-0.529,51.208,-56.641,-149.353
-1.726,-0.539,-0.217,-24.536,-42.48,-199.951
-1.36,-0.866,0.492,-17.334,-33.752,-118.103
-1.303,-0.694,0.685,36.438,-15.686,-70.312
-0.789,-0.916,0.554,174.988,28.931,-7.019
-0.026,-0.985,-0.062,206.848,65.125,40.894
-0.12,-1.191,0.307,62.5,48.157,101.562
-0.752,-0.346,-0.296,62.378,70.557,136.536
-1.557,-0.071,0.219,-163.513,98.267,199.28
-2.17,0.371,-0.471,-141.235,35.461,166.931
-0.862,0.791,-0.125,36.011,-15.991,138.245
-0.87,0.417,-0.071,55.908,-39.856,18.066
0.135,-0.354,0.129,-92.59,39.917,-59.937
-0.361,-1.625,-0.603,-126.892,-42.114,1.221
-0.496,-0.395,-0.192,238.708,-85.999,-9.399
-4.0,-4.0,0.743,-38.574,-88.318,84.961
1.958,4.0,-1.802,28.259,27.1,67.932
-0.208,-0.098,-0.676,81.909,16.418,-71.716
-3.526,-0.754,-0.353,32.166,-32.532,8.057
-1.501,-0.563,0.393,8.301,-47.485,8.24
-1.521,-0.258,-0.303,-11.108,-19.775,-104.553
-1.044,-0.575,-0.031,-14.893,0.122,-105.53
-0.921,-0.506,-0.096,-45.898,2.808,-66.284
-0.797,0.061,-0.034,6.409,-0.61,-53.101
-0.844,-0.378,0.203,87.524,-5.31,-36.804
-0.615,-0.848,0.032,109.741,4.028,-32.715
-0.717,-1.542,0.125,51.636,42.786,21.24
-3.424,-0.087,-1.045,-31.555,27.588,113.708
-1.066,0.236,-0.198,-108.643,-3.784,54.504
-1.506,0.252,-0.33,-45.959,59.082,95.398
-1.764,0.279,-0.508,0.183,7.629,83.13
-0.942,0.608,-0.11,45.898,-14.404,63.11
-0.903,0.527,-0.058,4.944,-21.24,5.554
-0.912,0.436,-0.073,-1.648,-14.771,-16.174
-0.917,0.065,-0.203,-42.48,0.0,-58.777
-0.563,-0.03,-0.02,-110.046,18.372,-79.651
-0.505,-0.11,-0.016,-117.859,-2.93,-96.313
-0.877,0.261,-0.204,-105.286,-26.062,-89.966
-0.877,0.121,-0.022,26.672,-42.419,-69.458
-0.909,0.245,0.126,26.855,-30.457,-66.467
-1.093,0.317,-0.06,51.575,-32.41,-86.548
-1.193,-0.801,-0.537,34.363,-18.921,-55.298
-1.133,-0.199,-0.255,-37.842,-29.236,-44.556
-0.994,0.031,0.101,-59.57,-5.005,-63.354
-0.941,0.055,0.02,-3.418,-0.488,-50.964
-0.843,0.148,-0.129,16.357,-6.714,-52.917
-0.91,-0.081,-0.37,6.653,-16.418,-41.199
-0.974,-0.051,-0.342,-4.761,-20.02,-36.438
-1.045,-0.073,-0.22,-27.71,-13.794,-33.813
-1.047,-0.076,-0.111,-19.226,-9.705,-13.123
-1.043,0.004,-0.137,-8.057,-10.559,-2.258
-0.941,0.161,-0.272,18.555,-9.583,7.568
-0.903,0.185,-0.278,19.409,-4.944,3.601
-0.919,0.143,-0.27,7.446,-2.991,0.854
-0.929,0.154,-0.249,3.235,-3.174,-0.488
-0.945,0.163,-0.238,-8.057,-5.432,-5.371
-0.941,0.175,-0.217,-10.803,-5.493,-8.362
-0.948,0.088,-0.245,-9.827,-3.906,-10.62
-0.96,0.097,-0.281,-7.812,-3.845,-6.348
-0.949,0.143,-0.267,-3.479,-3.052,-2.38
-0.938,0.161,-0.268,1.465,-0.122,-1.099
-0.94,0.154,-0.282,2.136,-0.671,-1.404
-0.928,0.135,-0.253,-3.113,-1.221,-2.991
-0.933,0.127,-0.254,-3.662,-0.916,-3.174
-0.949,0.136,-0.257,-6.287,-1.404,-3.235
-0.945,0.139,-0.25,-5.432,-1.77,-2.991
-0.939,0.156,-0.259,0.671,-1.892,-1.404
-0.945,0.129,-0.28,2.563,-1.343,-1.16
-0.94,0.134,-0.269,-0.488,-0.916,-1.038
-0.944,0.133,-0.26,-1.648,0.0,-0.549
-0.948,0.134,-0.256,-1.343,0.061,-0.671
-0.942,0.13,-0.258,2.502,0.671,0.366
-0.945,0.153,-0.267,2.38,-0.061,0.732

-0.88,-0.635,-0.021,30.884,8.728,34.058
-0.861,-0.662,-0.0,34.241,13.367,43.945
-0.845,-0.647,0.019,35.706,17.578,53.467
-0.841,-0.581,0.047,34.912,20.996,61.829
-0.958,-0.251,0.093,33.875,38.269,76.965
-1.366,-0.357,0.06,48.462,57.19,91.858
-1.348,-0.635,-0.016,58.716,42.175,123.23
-1.32,-0.274,0.027,46.143,22.339,142.7
-1.305,0.024,-0.147,7.141,12.512,133.972
-1.38,-0.571,0.053,33.569,29.419,137.512
-1.303,-0.53,0.061,0.977,28.137,131.836
-1.067,-0.345,-0.091,-30.823,23.804,111.755
-0.872,-0.06,-0.194,-55.176,9.888,69.946
-0.696,0.065,-0.045,-33.203,-0.366,33.813
-0.334,0.055,-0.244,20.081,-4.456,-5.432
-0.185,0.393,-0.342,66.04,-32.776,-57.617
-0.075,0.688,-0.247,73.059,-49.805,-100.891
-0.245,-1.612,-0.859,53.772,-16.968,-137.756
-4.0,-0.915,-0.532,-28.076,18.921,8.606
-0.725,-0.077,-0.338,75.134,24.475,-78.796
-1.963,0.713,-1.009,115.356,-1.404,-194.58
-2.075,-0.483,-1.313,72.876,-14.954,-219.421
-1.866,-2.08,0.391,-120.361,22.461,-206.604
-1.299,-1.855,0.79,-86.121,1.587,-122.009
0.133,-0.948,-0.285,134.216,44.678,51.147
-1.473,-0.307,-0.056,83.923,54.077,156.311
-2.226,-0.355,-0.718,-99.854,55.847,270.142
-2.586,0.07,-0.564,-84.9,9.583,274.597
-1.196,0.855,-0.211,-40.955,-35.95,178.101
0.559,0.786,-0.496,109.314,37.476,-55.969
-0.321,-0.388,-0.364,182.007,-70.923,-33.875
0.975,2.569,0.052,-83.801,61.462,36.194
-2.327,-0.221,-0.527,-8.789,-30.273,-220.581
-1.724,-1.1,-0.106,-36.316,-22.766,-198.364
-1.388,-1.488,0.23,-33.691,6.592,-111.694
-0.704,-0.623,-0.435,-177.246,-39.124,117.676
-0.605,0.905,-0.212,26.062,-48.706,88.013
-0.062,0.066,-0.642,-95.52,-20.386,-56.641
-0.867,0.474,-0.485,-13.245,-22.339,-54.138
-0.196,0.001,0.089,116.455,62.012,45.044
-0.388,-0.097,-0.839,145.752,57.373,55.603
-0.689,0.526,0.163,6.897,-13.184,67.261
-0.926,0.09,0.098,15.503,-45.41,-14.587
-0.953,-0.075,0.2,-83.557,-12.268,-77.698
-0.971,-0.434,-0.349,-33.63,-10.315,-59.265
-0.984,-0.11,-0.258,-9.155,-5.31,-36.987
-1.05,-0.126,-0.143,-5.005,-11.597,-4.883
-0.931,0.136,-0.259,-12.512,-2.136,-2.747
-0.974,0.039,-0.259,-0.671,-2.808,0.061
-0.959,0.018,-0.252,9.46,-3.662,3.113
-0.962,0.034,-0.266,-0.549,-2.319,1.221
-0.957,0.043,-0.251,1.343,-1.221,3.113
-0.952,0.04,-0.256,2.197,-0.977,0.61
-0.952,0.044,-0.27,0.366,0.061,0.854
-0.956,0.014,-0.25,0.854,0.793,0.671
-0.957,0.01,-0.246,-0.732,0.366,0.61
-0.954,0.035,-0.25,-1.648,0.183,-0.916
-0.958,0.039,-0.244,-0.427,0.793,0.061
-0.955,0.028,-0.254,-0.122,0.427,0.977
-0.964,0.004,-0.245,2.441,1.16,3.235
-0.955,0.016,-0.245,-1.77,0.854,0.793
-0.959,0.017,-0.25,-0.61,0.061,-0.732
-0.953,0.026,-0.249,-0.244,0.427,-1.038
-0.958,0.014,-0.248,-0.366,0.0,-0.061
-0.957,0.016,-0.246,0.427,0.549,0.549
-0.954,0.021,-0.244,0.61,-0.488,-0.366
-0.956,0.019,-0.25,0.366,-0.366,-0.793
-0.953,0.023,-0.249,0.854,-0.122,-0.305
-0.953,0.023,-0.257,-0.61,15.564,0.122
-0.951,0.023,-0.262,-1.16,0.122,0.61
-0.954,0.005,-0.256,-2.441,0.366,0.244
-0.955,0.027,-0.259,-0.61,0.244,-0.61
-0.953,0.026,-0.253,-0.427,0.61,-0.732
-0.946,0.051,-0.257,1.892,0.061,-1.038
-0.95,0.039,-0.265,0.488,0.854,-0.916
-0.951,0.037,-0.266,2.869,0.549,-0.366
-0.964,0.027,-0.254,2.93,2.075,3.174
-0.96,0.005,-0.244,5.859,2.197,5.188
-0.956,0.016,-0.233,1.77,1.099,1.892
-0.961,0.013,-0.23,2.319,1.099,1.587
-0.961,0.01,-0.227,1.526,1.099,1.038
-0.961,0.008,-0.228,0.916,0.427,0.427
-0.959,0.011,-0.234,-0.671,-0.427,-1.404
-0.955,0.015,-0.235,-0.977,-0.916,-1.648
-0.958,0.017,-0.244,-0.549,-0.916,-1.343
-0.956,0.026,-0.248,-0.732,-0.305,-0.366
-0.958,0.021,-0.243,-1.099,-0.854,-0.244
-0.958,0.009,-0.246,-0.488,0.183,1.404
-0.957,0.018,-0.252,-0.916,-0.122,0.916
-0.956,0.013,-0.241,-2.747,0.488,-0.793
-0.956,0.036,-0.25,-1.648,0.244,-1.404
-0.957,0.026,-0.254,0.916,0.488,-1.282
-0.951,0.043,-0.254,0.0,0.244,-1.892
-0.955,0.034,-0.244,0.854,0.488,1.099
-0.957,0.027,-0.241,0.61,1.648,1.587
-0.954,0.023,-0.239,3.052,1.953,2.869
-0.967,0.002,-0.222,0.549,2.502,1.709
-0.967,0.0,-0.22,1.282,0.366,0.793
-0.968,0.014,-0.212,1.221,0.671,0.977
-0.963,0.011,-0.217,1.343,0.366,1.282
-0.961,-0.002,-0.225,0.0,-0.793,-0.854
-0.962,-0.0,-0.223,-0.122,-0.671,-0.671
-0.958,0.012,-0.232,-0.061,-1.038,-1.099
-0.954,0.015,-0.239,0.305,-0.427,0.0
-0.958,0.016,-0.234,0.549,-0.061,0.305
-0.955,0.014,-0.239,-0.244,0.061,-0.549
-0.959,0.01,-0.241,-0.488,0.122,0.183
-0.961,0.012,-0.24,0.427,0.366,0.488
-0.958,0.016,-0.236,0.427,0.366,0.183
-0.959,-0.002,-0.245,0.793,0.061,0.61
-0.958,0.013,-0.241,-0.427,0.122,-0.305
-0.959,0.006,-0.243,1.16,-0.305,-0.732
-0.956,0.014,-0.245,-0.793,-0.366,-0.977
-0.956,0.013,-0.245,0.854,-0.122,-0.488
-0.956,0.019,-0.247,0.61,0.0,-0.732
-0.958,0.03,-0.241,0.549,0.183,0.61
-0.959,0.005,-0.245,-2.075,0.061,-1.038
-0.954,0.035,-0.243,-2.258,0.488,-0.488
-0.958,0.026,-0.244,1.587,0.061,0.061

-0.867,-0.481,0.133,35.522,18.25,11.597
-0.874,-0.493,0.246,38.147,22.339,17.761
-1.004,-0.797,0.396,20.142,75.684,75.439
-1.283,-0.344,-0.139,19.714,49.561,105.469
-1.368,-0.631,0.184,26.428,54.077,135.071
-1.099,-0.257,0.007,-42.419,31.677,102.539
-0.57,0.009,0.064,-58.35,7.446,29.602
-0.413,0.078,-0.092,39.551,-8.301,-22.705
-0.215,0.596,-0.601,67.017,-49.255,-74.951
-1.288,-2.677,0.611,126.831,-105.103,-50.72
-0.072,0.475,-0.407,-5.371,-75.378,-96.802
-1.522,-0.539,-0.548,33.142,-52.002,-108.582
-2.0,-1.191,-0.45,23.438,-155.457,-202.148
-1.303,-1.853,1.233,-3.174,-47.302,-83.008
0.008,-0.679,0.086,49.866,88.196,71.35
-1.767,-0.718,-0.58,183.35,128.784,170.288
-2.609,-0.508,-0.196,-83.74,132.08,261.902
-1.537,0.767,-0.549,-66.406,42.053,196.594
-0.238,1.034,-0.224,8.484,-40.161,-24.17
-0.119,-0.113,0.686,-3.479,-1.831,-108.887
-0.175,0.051,-0.76,-46.936,-114.685,27.344
0.482,2.321,-2.299,-378.418,149.536,-6.042
-2.93,-0.751,0.058,72.083,-88.135,-45.776
-2.667,-0.451,-0.495,-51.636,-154.602,-226.807
-1.487,-0.94,1.031,-12.024,-47.241,-111.511
-0.199,-0.666,0.643,66.101,55.298,-13.611
-0.778,-0.503,-0.488,106.689,128.052,120.056
-1.587,0.205,0.33,66.772,78.918,191.467
-1.558,0.712,-0.756,-45.471,88.318,176.758
-0.563,0.998,-0.174,48.706,-63.171,52.185
-0.309,0.237,0.054,-78.125,9.338,-56.458
0.094,0.33,1.808,138.611,-54.81,-11.658
-1.617,-0.489,-1.512,137.146,-75.134,-85.815
-0.661,-0.03,-0.434,-29.541,-70.251,-62.195
-1.115,-0.469,0.37,-8.362,-99.548,-99.976
-0.759,0.045,0.098,3.845,-20.874,-60.364
-1.923,-1.249,-0.082,38.574,91.064,27.405
-1.319,0.053,-0.182,19.897,17.944,87.097
-0.966,0.161,-0.075,-124.329,-68.176,-57.373
-1.306,0.136,-0.159,71.594,-84.167,-41.687
-0.934,-0.178,-0.111,-12.634,-30.212,-28.442
-0.94,0.069,-0.275,-2.38,-2.38,-2.319
-0.949,0.022,-0.277,-1.953,-1.465,0.061
-0.951,0.015,-0.282,-1.77,-1.099,-0.793
-0.952,-0.007,-0.269,-1.648,-0.549,-0.977
-0.946,0.013,-0.282,5.249,0.854,0.854
-0.951,-0.0,-0.268,0.549,0.854,0.549
-0.952,0.005,-0.271,-0.549,0.122,-0.488
-0.949,0.02,-0.274,-2.319,-0.122,-0.61
-0.952,0.006,-0.272,-1.587,-0.122,0.183
-0.952,0.006,-0.272,-0.061,0.0,0.549
-0.953,0.001,-0.268,-0.183,0.244,0.732
-0.954,-0.002,-0.275,-1.16,0.305,0.061
-0.952,-0.007,-0.276,-1.221,0.122,-0.488
-0.954,-0.005,-0.273,-0.183,0.549,0.366
-0.954,-0.01,-0.269,0.244,0.0,-0.305
-0.949,0.005,-0.278,0.244,-0.061,-0.122
-0.948,0.009,-0.272,1.709,0.0,-0.61
-0.95,0.004,-0.271,0.732,-0.183,-0.427
-0.951,0.001,-0.273,-0.122,0.549,0.61
-0.951,0.001,-0.271,2.502,1.099,1.526
-0.953,-0.002,-0.269,1.16,0.305,-0.061
-0.952,-0.002,-0.272,-0.793,0.671,-0.488
-0.953,0.005,-0.27,0.61,0.427,0.061
-0.952,-0.003,-0.263,0.183,0.427,0.977
-0.955,-0.007,-0.259,-0.122,0.427,0.61
-0.953,-0.005,-0.264,0.244,0.61,0.366
-0.953,-0.004,-0.262,0.488,0.244,0.366
-0.953,-0.012,-0.261,0.671,0.244,0.0
-0.956,-0.012,-0.255,-0.854,0.916,0.366
-0.956,-0.009,-0.252,-0.488,0.549,0.0
-0.952,-0.001,-0.264,0.488,0.916,-0.061
-0.957,-0.01,-0.252,0.671,0.488,0.854
-0.955,-0.011,-0.254,0.488,0.122,0.183
-0.957,-0.018,-0.254,0.488,0.183,0.061
-0.952,-0.013,-0.258,0.671,0.244,0.122
-0.953,-0.012,-0.258,-0.671,0.305,0.366
-0.957,-0.02,-0.252,1.587,0.793,0.854
-0.954,-0.016,-0.255,0.671,0.671,0.305
-0.957,-0.016,-0.25,0.061,0.61,0.061
-0.957,-0.017,-0.247,0.305,0.488,0.366
-0.959,-0.017,-0.249,0.366,0.61,0.183
-0.954,-0.016,-0.251,0.61,0.183,0.244
-0.956,-0.018,-0.248,0.366,-0.061,0.366
-0.957,-0.015,-0.248,-0.244,0.366,0.488
-0.958,-0.022,-0.246,0.427,0.122,0.244
-0.96,-0.025,-0.244,-0.305,0.305,0.122
-0.957,-0.02,-0.247,-0.061,0.61,0.244
-0.958,-0.024,-0.244,-0.366,0.732,0.244
-0.957,-0.023,-0.244,0.427,0.366,0.183
-0.96,-0.025,-0.244,-0.305,-0.122,-0.183
-0.956,-0.017,-0.249,0.732,0.061,-0.183
-0.957,-0.015,-0.249,0.061,0.244,-0.061
-0.957,-0.019,-0.246,0.305,0.244,0.0
-0.958,-0.016,-0.243,-0.061,0.061,-0.183
-0.957,-0.015,-0.244,0.183,-0.122,-0.122
-0.957,-0.02,-0.248,0.427,0.0,0.061
-0.955,-0.02,-0.249,0.366,0.061,-0.488
-0.957,-0.019,-0.25,-0.183,-0.183,-0.488
-0.958,-0.012,-0.255,-0.122,-0.061,-0.549
-0.954,-0.008,-0.258,0.671,-0.488,-0.671
-0.954,-0.007,-0.254,1.221,0.793,0.427
-0.955,-0.005,-0.256,0.244,0.549,-0.183
-0.952,-0.008,-0.248,1.404,1.16,0.732
-0.955,-0.0,-0.252,-0.61,0.183,0.122
-0.963,-0.011,-0.244,-0.122,0.0,0.122
-0.958,-0.014,-0.249,-0.061,0.305,0.0
-0.957,-0.007,-0.249,0.183,0.366,0.244
-0.955,-0.005,-0.252,0.427,0.549,0.061
-0.957,-0.01,-0.245,0.366,0.366,0.183
-0.958,-0.007,-0.244,0.671,0.244,0.122
-0.954,0.001,-0.251,-0.488,-0.488,-0.427
-0.956,-0.002,-0.25,0.854,-0.732,-0.366
-0.954,0.002,-0.261,0.671,0.244,0.183
-0.953,-0.001,-0.254,0.061,0.061,-0.305
-0.954,-0.008,-0.256,0.305,-0.366,-0.183
-0.955,0.0,-0.259,-0.061,-0.244,-0.244
-0.954,-0.001,-0.256,0.427,0.427,0.305
-0.954,-0.001,-0.258,-0.061,0.854,0.488

-0.789,-0.66,0.043,72.021,26.123,50.11
-0.774,-0.669,0.103,58.716,24.719,65.186
-1.631,-0.769,-0.017,-5.31,83.008,156.738
-1.034,-0.335,-0.129,-44.495,47.302,99.976
-0.257,0.39,-0.503,-17.7,20.386,5.249
-4.0,-1.156,0.327,181.091,-35.4,55.542
-1.957,-0.19,-0.587,77.148,-58.411,-93.323
-2.081,-0.894,-0.403,17.212,-128.54,-204.895
-1.546,-1.776,1.468,-7.568,-79.224,-120.789
-1.09,0.611,-0.34,-61.523,30.518,161.743
0.168,-1.406,0.318,-46.692,24.597,-19.653
0.149,1.951,-0.609,-405.273,110.779,32.227
-1.444,0.3,-0.501,-70.557,27.1,91.309
-0.903,0.418,-0.31,-5.92,-4.578,16.907
-0.948,-0.059,-0.276,-0.854,1.099,0.488
-0.952,-0.06,-0.279,0.427,1.16,-0.488
-0.95,-0.04,-0.281,1.77,-0.427,-1.648
-0.948,-0.02,-0.273,1.282,0.061,-0.244
-0.951,-0.032,-0.28,-3.052,-0.305,-0.122
-0.946,-0.034,-0.294,1.16,-0.122,0.366
-0.95,-0.038,-0.279,-1.404,1.16,0.732
-0.953,-0.039,-0.272,0.061,0.916,0.977
-0.95,-0.037,-0.275,1.099,0.427,-0.061
-0.951,-0.04,-0.272,-0.427,-0.061,-0.183
-0.951,-0.034,-0.279,1.099,-0.305,-0.427
-0.95,-0.037,-0.28,1.465,0.061,-0.488
-0.949,-0.024,-0.273,2.93,0.0,0.061
-0.95,-0.035,-0.274,1.282,0.732,0.305
-0.953,-0.03,-0.267,0.305,0.427,0.305
-0.95,-0.036,-0.273,0.427,-0.122,-0.183
-0.95,-0.028,-0.277,2.258,0.488,-0.122
-0.952,-0.03,-0.271,0.671,0.488,-0.305
-0.95,-0.032,-0.265,0.183,0.854,0.061
-0.953,-0.031,-0.269,-0.427,0.61,0.122
-0.953,-0.032,-0.267,0.183,0.427,0.122
-0.954,-0.036,-0.262,0.916,1.16,0.305
-0.951,-0.026,-0.26,0.427,-0.366,-0.488
-0.954,-0.024,-0.261,1.404,0.061,-0.732
-0.957,-0.032,-0.26,0.916,0.244,0.488
-0.954,-0.037,-0.264,-0.061,0.671,0.305
-0.954,-0.019,-0.266,3.967,1.038,-0.732
-0.957,-0.026,-0.252,-0.244,0.183,0.0
-0.956,-0.025,-0.254,0.427,0.977,0.549
-0.96,-0.034,-0.244,1.404,0.793,0.427
-0.96,-0.028,-0.245,0.244,0.427,0.183
-0.959,-0.029,-0.241,0.427,0.916,0.732
-0.959,-0.04,-0.235,1.282,0.916,1.16
-0.959,-0.039,-0.237,0.183,0.244,0.61
-0.959,-0.037,-0.239,-0.122,0.366,-0.427
-0.955,-0.027,-0.24,-1.16,0.977,0.061
-0.961,-0.035,-0.233,0.427,0.732,0.61
-0.961,-0.041,-0.232,0.793,0.366,0.977
-0.962,-0.054,-0.225,0.0,1.099,0.61
-0.963,-0.049,-0.225,-0.244,0.305,-0.488
-0.964,-0.058,-0.221,0.366,0.549,0.549
-0.96,-0.064,-0.222,5.554,0.488,0.244
-0.965,-0.053,-0.218,0.732,0.061,-0.061
-0.962,-0.052,-0.221,0.671,0.366,0.061
-0.964,-0.047,-0.225,-0.366,0.122,-0.244
-0.961,-0.049,-0.223,-0.793,0.061,0.061
-0.961,-0.046,-0.224,-0.366,0.061,0.0
-0.961,-0.049,-0.225,-0.183,-0.122,0.061
-0.961,-0.05,-0.223,0.061,-0.061,0.305
-0.961,-0.047,-0.23,-0.854,0.0,-0.244
-0.963,-0.053,-0.227,0.061,0.671,0.0
-0.962,-0.053,-0.226,-0.122,0.61,0.305
-0.963,-0.053,-0.222,0.488,0.732,0.122
-0.962,-0.051,-0.221,0.366,0.61,0.244
-0.963,-0.059,-0.225,1.587,0.061,0.061
-0.962,-0.049,-0.224,-0.671,0.122,-0.122
-0.963,-0.049,-0.22,-0.061,0.183,0.122
-0.962,-0.053,-0.219,-0.488,0.183,0.244
-0.964,-0.054,-0.219,-0.061,0.122,0.0
-0.962,-0.058,-0.222,-0.305,0.061,0.122
-0.964,-0.055,-0.222,0.366,0.061,-0.305
-0.962,-0.058,-0.226,0.488,-0.122,-0.305
-0.961,-0.054,-0.227,0.122,0.061,-0.244
-0.964,-0.06,-0.231,0.549,0.488,-0.732
-0.961,-0.043,-0.227,0.793,0.61,0.427
-0.964,-0.049,-0.218,0.183,0.488,0.732
-0.964,-0.055,-0.214,0.183,0.244,0.0
-0.965,-0.051,-0.218,1.038,-0.061,0.0
-0.965,-0.051,-0.223,-0.427,-0.305,-0.061
-0.962,-0.047,-0.225,-0.305,0.0,-0.183
-0.962,-0.049,-0.224,0.244,0.305,0.061
-0.963,-0.049,-0.221,0.122,0.366,0.549
-0.964,-0.047,-0.219,-0.366,0.366,0.122
-0.962,-0.046,-0.226,0.0,0.671,0.183
-0.962,-0.06,-0.222,-0.122,0.549,0.549
-0.964,-0.059,-0.217,0.244,0.061,0.305
-0.96,-0.052,-0.219,-0.183,0.183,0.061
-0.965,-0.054,-0.217,0.61,0.061,-0.122
-0.963,-0.052,-0.22,-0.305,0.244,0.183
-0.964,-0.058,-0.219,0.671,0.488,0.061
-0.964,-0.054,-0.219,0.549,0.61,0.122
-0.965,-0.052,-0.213,0.61,0.732,0.244
-0.963,-0.055,-0.215,-0.488,0.183,-0.366
-0.965,-0.053,-0.216,0.549,0.122,-0.122
-0.965,-0.057,-0.22,0.916,0.183,0.732
-0.964,-0.056,-0.224,0.305,0.183,-0.061
-0.964,-0.058,-0.215,-0.549,0.183,-0.061
-0.965,-0.059,-0.213,0.244,0.183,0.061
-0.963,-0.056,-0.214,0.732,0.183,0.488
-0.965,-0.065,-0.216,0.122,0.305,0.244
-0.963,-0.056,-0.215,0.122,0.427,0.305
-0.964,-0.063,-0.217,0.366,0.366,0.305
-0.964,-0.064,-0.215,0.244,0.366,0.183
-0.966,-0.063,-0.213,0.488,0.366,0.366
-0.964,-0.066,-0.212,0.427,0.061,0.366
-0.965,-0.065,-0.215,0.122,0.427,0.122
-0.963,-0.066,-0.21,0.366,-0.061,0.0
-0.964,-0.067,-0.215,0.549,0.061,-0.183
-0.964,-0.064,-0.213,0.488,0.305,0.0
-0.966,-0.065,-0.215,-0.122,0.488,0.0
-0.962,-0.063,-0.213,0.427,0.488,0.244
-0.965,-0.068,-0.214,0.427,0.427,0.122
-0.962,-0.067,-0.212,-0.061,0.305,0.061
-0.964,-0.064,-0.209,0.366,0.244,0.0
-0.965,-0.063,-0.214,-0.488,0.244,-0.305

-0.942,-0.482,0.247,36.56,14.587,1.404
-0.91,-0.57,0.275,43.518,21.057,6.348
-0.868,-0.666,0.298,51.27,27.71,13.367
-0.824,-0.777,0.308,57.861,33.508,21.667
-0.778,-0.882,0.319,63.538,38.025,31.555
-0.736,-1.004,0.295,65.857,41.504,42.419
-0.672,-0.895,-0.001,-24.475,53.345,87.646
-1.752,-0.176,0.082,-97.9,99.304,95.398
-1.438,-0.605,0.097,-28.625,87.524,122.253
-1.498,-0.086,0.163,-6.165,71.106,161.499
-1.393,-0.235,-0.031,-7.874,81.116,145.874
-1.416,-0.336,0.214,15.686,85.266,145.142
-1.214,-0.335,0.291,34.485,58.899,113.708
-0.469,-0.04,0.022,-20.996,-5.554,-21.912
-0.218,-0.249,-0.514,42.847,-36.987,-26.611
0.058,0.602,-0.871,15.259,-91.492,-64.941
0.385,0.475,0.632,7.446,-112.427,-102.173
-0.938,0.157,-0.081,-172.424,4.883,-14.587
-2.459,-0.401,-0.34,101.562,-54.565,-63.11
-1.808,-0.366,-1.042,-3.54,-103.943,-184.509
-2.218,-1.925,0.608,48.218,-138.855,-180.359
-1.799,-1.871,1.17,12.939,-99.609,-164.551
-1.266,-1.193,1.585,-3.479,-71.655,-132.263
-0.394,-0.104,0.709,-8.545,23.926,-12.207
-0.071,-0.607,0.05,36.926,45.715,-1.465
0.33,-1.055,0.309,12.878,20.264,58.655
-0.219,-0.638,0.8,1.831,37.109,69.397
-3.277,-0.992,-1.708,12.39,148.071,173.645
-1.281,-1.065,-0.277,-85.022,104.858,154.663
-2.927,-0.297,-0.453,-81.543,127.197,206.421
-2.862,-0.448,-0.387,-123.474,102.234,217.163
-2.061,0.732,-0.47,-46.814,85.266,218.994
-1.203,0.89,-0.214,-30.762,50.11,165.527
-0.879,0.832,-0.179,-5.005,43.03,124.573
-0.323,0.467,-0.446,38.269,-14.16,-36.194
0.309,0.186,-0.793,123.718,-27.71,-98.816
0.244,-0.068,0.427,-28.32,16.418,-102.356
0.06,-0.133,0.72,-73.975,26.55,-98.145
-0.292,-1.028,-0.182,-51.636,-68.298,8.606
-0.557,-0.94,-0.502,-0.183,-85.632,35.156
-4.0,-4.0,2.28,119.141,96.741,-81.787
0.74,2.502,1.111,-99.67,75.439,20.813
-1.1,0.103,-1.135,280.029,-85.632,-65.613
-4.0,-0.903,-0.851,213.684,-68.237,-95.276
-0.835,-0.184,-0.11,18.738,-30.029,-62.195
-1.5,-0.147,-0.714,-48.828,-98.022,-163.269
-2.114,-0.457,-0.527,-56.641,-107.849,-173.035
-1.458,-0.747,-0.017,-45.776,-94.055,-142.578
-1.763,-1.709,0.918,5.371,-76.66,-123.352
-1.407,-1.417,1.149,2.991,-28.564,-82.214
-1.049,-0.542,1.398,56.213,-5.981,-36.438
-0.741,-0.336,1.222,121.399,24.231,-8.789
-0.424,-0.456,0.675,117.493,74.951,25.513
0.025,-1.284,0.418,103.76,62.134,59.143
-0.53,-0.694,-0.256,42.603,127.319,111.877
-3.84,-2.388,-0.635,-81.787,147.339,160.828
-4.0,-1.397,-1.087,-129.578,139.587,245.361
-2.077,0.285,-0.42,-103.943,134.46,188.049
-2.075,0.141,-0.729,-107.544,98.45,165.466
-1.646,0.276,-0.515,-49.133,58.533,132.019
-0.892,0.817,-0.641,18.311,33.691,132.629
-0.738,0.788,-0.287,58.105,-51.941,27.649
-0.568,0.429,0.076,44.067,-51.88,-13.733
-0.287,-0.324,0.076,-91.064,-37.476,-78.918
-0.344,-0.585,0.11,-97.046,-71.899,-59.631
-0.329,-0.699,-0.085,-93.14,-69.397,-50.964
-0.032,0.26,-1.007,41.87,-105.957,-65.369
0.043,1.245,0.888,32.166,-111.572,-101.562
-0.021,1.827,-1.091,112.061,104.553,-153.015
-0.201,3.079,-2.067,-442.383,158.997,107.239
1.279,0.515,-1.882,-194.092,-29.358,-75.989
0.204,-0.483,0.609,199.89,-135.315,-42.664
-1.528,-0.567,-0.946,224.976,-97.9,-45.044
-1.484,-0.695,0.548,61.829,-15.198,23.499
-0.741,-0.29,0.16,18.86,8.484,6.104
-1.136,-0.157,-0.23,-67.993,-67.017,-77.82
-1.948,-0.064,-0.224,-39.062,-59.57,-100.037
-1.527,-0.127,-0.09,-35.95,-57.373,-113.281
-1.022,-0.804,0.67,-19.47,-41.87,-82.092
-0.981,-0.651,0.59,-17.639,-19.592,-66.711
-0.834,-0.032,0.239,18.616,-3.113,-42.969
-0.743,0.065,-0.179,63.721,-22.644,-50.903
-0.74,-0.459,0.072,140.076,-30.09,-47.791
-0.717,-1.261,1.187,161.072,38.818,-16.418
-0.796,-1.059,0.223,87.891,84.9,11.536
-1.745,-0.626,-0.619,-141.479,102.234,68.42
-1.07,-0.395,-0.481,-86.975,10.071,47.852
-0.978,-0.087,-0.354,23.926,33.936,53.833
-1.715,-0.127,-0.255,13.733,47.791,95.032
-1.585,-0.212,-0.198,-8.545,10.62,83.801
-1.424,0.045,-0.277,-10.01,5.066,76.416
-1.093,0.482,-0.311,-43.335,-0.061,45.105
-0.994,0.432,-0.372,-26.733,-7.629,28.625
-1.008,0.388,-0.376,-16.663,-18.616,19.836
-0.854,0.174,-0.215,-35.278,-34.119,-9.155
-0.666,0.089,-0.094,-56.519,-35.645,-15.015
-0.583,0.087,0.037,-62.561,-38.391,-14.648
-0.564,0.183,0.066,-124.329,-33.264,-50.781
-0.843,0.274,-0.224,-112.183,-61.89,-69.092
-0.957,0.199,-0.298,-76.172,-80.322,-67.261
-0.95,-0.103,0.072,-35.461,-54.504,-55.298
-1.07,-0.235,0.41,64.941,-46.326,-60.181
-1.141,-0.065,0.255,74.463,-46.692,-59.631
-1.021,-0.504,-0.194,32.898,-38.391,-53.345
-1.1,-1.15,0.15,58.716,-27.771,-29.724
-0.946,-0.752,0.069,10.132,-7.812,-18.982
-0.882,0.106,-0.227,-53.284,-31.555,-29.724
-0.954,0.359,-0.169,-43.152,-46.204,-48.34
-0.943,-0.228,-0.106,-1.221,-30.09,-41.626
-0.954,-0.102,-0.143,-12.756,-33.875,-39.551
-0.944,-0.147,-0.137,-25.757,-32.654,-42.48
-0.958,-0.214,-0.152,-32.349,-29.724,-43.579
-0.985,-0.223,-0.131,-30.151,-30.64,-41.077
-0.994,-0.224,-0.077,-24.475,-26.489,-28.625
-1.013,-0.258,-0.05,-22.461,-15.991,-17.029
-1.018,-0.249,-0.048,-20.996,-13.489,-14.099
-1.031,-0.147,-0.136,-11.719,-5.676,-3.235
-1.015,-0.12,-0.184,-6.958,-5.127,0.183
-0.999,-0.126,-0.204,-5.066,-4.883,0.977

-0.813,-0.676,0.273,53.589,31.616,31.555
-0.82,-0.759,0.356,59.814,39.368,38.513
-0.847,-0.731,0.41,62.561,49.805,46.143
-0.856,-0.628,0.409,59.265,62.988,52.551
-0.838,-0.481,0.373,48.401,74.89,56.091
-0.933,-0.255,0.258,19.897,90.332,57.373
-1.091,-0.222,0.198,8.606,95.886,58.838
-1.395,-0.337,0.158,28.015,89.722,82.153
-1.268,-0.364,0.252,73.853,75.806,99.548
-1.24,-0.319,0.084,82.764,62.866,126.831
-1.271,-0.411,0.002,67.017,67.566,125.061
-1.236,-0.623,0.276,35.767,70.618,108.521
-1.083,-0.426,0.36,14.832,67.566,97.473
-0.923,-0.487,0.228,-40.344,62.317,85.571
-0.894,-0.437,0.205,-57.007,63.66,81.604
-0.893,-0.386,0.201,-60.852,63.721,80.383
-0.843,-0.191,0.141,-42.542,56.335,76.355
-0.786,-0.064,0.049,-19.287,49.072,68.665
-0.72,0.018,0.01,12.756,38.818,58.594
-0.547,-0.058,0.074,48.462,27.771,34.607
-0.412,-0.193,-0.038,76.904,6.775,9.216
-0.402,-0.189,-0.125,72.327,-1.587,-3.967
-0.361,0.054,-0.389,49.133,-40.039,-91.003
-0.308,0.512,-0.619,42.48,-54.749,-113.22
-0.248,0.885,-0.564,25.818,-86.67,-147.339
-0.274,-0.38,1.106,156.189,-69.641,-152.893
-3.209,-3.821,1.125,252.869,-96.191,-48.401
-0.752,-0.082,-0.467,-165.405,26.917,-48.706
0.574,0.847,-1.452,-21.729,-49.316,-87.463
0.302,0.521,-0.074,39.551,-78.613,-91.797
-1.148,-0.866,-0.112,80.872,-62.256,-62.866
-2.005,-0.978,-0.224,56.213,-39.368,-46.082
-1.761,-0.643,-0.064,48.767,-19.775,-43.884
-1.162,0.252,-0.239,46.082,-49.805,-97.595
-1.619,0.194,-0.48,13.123,-65.796,-134.583
-1.728,0.108,-0.6,11.414,-91.248,-181.641
-1.897,-0.469,-0.812,51.27,-101.99,-198.669
-2.076,-2.59,0.505,-5.859,-135.742,-185.913
-1.728,-2.043,1.523,33.203,-101.807,-166.992
-1.335,-2.372,1.988,-12.329,-35.767,-64.758
-0.715,-0.911,1.409,-94.116,19.836,-15.442
-0.395,0.0,0.552,-24.963,60.791,-6.897
0.17,-0.578,-0.061,14.954,75.256,20.996
0.058,-0.664,0.793,10.986,60.547,66.467
-0.939,-0.725,0.619,112.183,112.488,102.539
-2.72,-1.427,-0.485,99.609,105.835,156.677
-2.643,-0.857,-0.833,-87.524,125.854,221.985
-1.885,-0.508,0.047,15.93,135.925,231.75
-2.234,-0.509,0.015,0.366,148.743,249.023
-2.677,-0.431,-0.468,-55.481,122.009,263.428
-2.323,0.216,-0.258,-54.138,86.609,230.286
-2.029,0.362,-0.306,-59.387,72.571,219.421
-1.026,0.677,-0.393,-48.584,11.719,163.391
-0.78,0.985,-0.328,-36.011,-12.817,105.103
-0.674,1.142,-0.306,-30.701,-27.344,22.4
0.131,0.811,-0.751,-42.847,-25.635,-70.374
-0.017,0.29,0.56,9.827,-1.831,-112.549
-0.222,-0.081,0.828,-130.615,27.283,-104.919
-0.149,-0.286,-1.073,-71.838,-117.188,15.869
-4.0,-3.743,2.607,51.453,-54.688,36.804
1.72,2.825,-3.735,-25.33,-60.608,-2.563
-0.471,0.19,-1.65,37.048,-4.333,-111.267
-1.073,-0.523,-0.428,-34.485,-93.445,-174.5
-2.594,-1.467,-0.097,-63.538,-139.526,-186.401
-1.654,-1.28,0.791,-59.265,-105.225,-148.865
-1.211,-1.533,1.339,-46.448,-59.814,-89.417
-0.315,0.358,0.195,77.515,31.494,-1.831
-0.111,-0.24,-0.035,112.915,34.851,22.4
-0.611,-0.592,1.011,103.333,146.057,84.717
-1.719,-0.948,-1.034,38.208,118.591,97.29
-4.0,-1.047,-1.737,-151.733,83.374,190.613
-1.46,-0.199,0.152,-15.137,133.179,197.144
-2.56,0.189,-0.649,-96.375,103.271,184.082
-0.904,1.032,-0.522,25.635,56.03,154.297
-0.787,0.63,-0.313,65.735,-58.044,46.875
-0.745,0.317,0.325,7.385,-46.204,-29.297
-0.208,-0.207,0.216,-63.843,-11.719,-81.36
-0.118,-0.23,0.012,-83.862,-47.363,-51.086
-0.317,-0.477,-0.297,-83.435,-30.151,-21.912
-0.746,-0.466,-0.326,36.133,-57.556,-27.161
-0.319,-0.771,-0.359,149.17,-42.297,-41.016
-0.469,-0.448,-1.17,192.383,-86.67,-38.33
-0.718,-0.41,0.427,33.691,-10.376,-42.236
-0.606,-0.629,0.792,80.383,30.823,-5.798
-1.717,-0.745,-0.875,-93.933,108.521,102.112
-1.079,-0.432,-0.273,-9.521,26.611,96.008
-1.48,0.274,-0.616,19.775,-16.113,55.542
-1.173,0.478,-0.656,37.903,-23.438,44.25
-0.95,0.322,-0.025,-80.811,-22.888,-66.284
-0.496,0.191,-0.19,-50.537,-67.2,-68.054
-0.957,-0.019,-0.329,-21.973,-39.429,-49.988
-0.968,-0.206,-0.262,-36.865,-25.513,-29.968
-0.978,0.158,-0.184,-11.597,-34.241,-35.767
-0.91,-0.134,-0.287,-20.996,-33.936,-40.894
-0.905,-0.121,-0.206,-22.461,-39.551,-39.551
-0.969,-0.122,-0.117,-16.418,-37.659,-35.278
-1.066,-0.257,-0.078,-12.146,-8.606,-11.536
-1.004,-0.106,-0.218,1.892,-0.549,4.089
-0.973,-0.023,-0.246,17.456,-1.099,5.005
-0.933,-0.067,-0.27,-5.737,-2.38,-2.502
-0.946,-0.032,-0.278,-19.348,-2.808,-5.554
-0.963,-0.031,-0.251,-20.874,-3.357,-5.493
-0.975,0.015,-0.225,-8.667,-2.991,-1.221
-0.961,-0.008,-0.257,-0.732,2.869,1.282
-0.955,-0.0,-0.287,3.723,3.296,2.441
-0.946,-0.001,-0.281,4.333,3.296,2.197
-0.954,-0.036,-0.244,5.859,3.906,1.953
-0.959,-0.029,-0.257,3.174,3.296,2.136
-0.959,-0.032,-0.259,2.38,3.357,1.953
-0.958,-0.032,-0.253,3.418,3.235,1.526
-0.962,-0.042,-0.229,7.996,4.028,4.456
-0.962,-0.032,-0.224,8.972,5.249,4.883
-0.968,-0.028,-0.221,9.033,5.676,4.333
-0.953,-0.058,-0.225,3.54,5.798,3.235
-0.962,-0.041,-0.207,1.221,3.906,2.136
-0.969,-0.058,-0.214,1.465,4.272,2.502
-0.968,-0.048,-0.216,0.549,3.784,2.869
-0.969,-0.047,-0.211,1.343,3.662,2.502
-0.967,-0.047,-0.204,2.747,3.723,1.831

-0.869,-0.62,0.319,31.189,9.949,1.709
-0.852,-0.71,0.374,35.767,16.846,8.057
-0.824,-0.761,0.401,37.72,24.475,16.052
-0.794,-0.796,0.413,37.231,32.166,25.085
-0.798,-0.752,0.336,32.898,47.607,41.138
-0.782,-0.692,0.266,27.283,56.213,48.035
-0.91,-0.356,0.175,-2.197,74.219,56.641
-1.302,-0.252,0.177,-18.921,86.243,59.753
-1.444,-0.384,0.2,-15.198,92.59,76.538
-1.254,-0.244,0.449,42.419,64.636,128.601
-1.245,-0.044,0.36,19.836,56.03,133.911
-1.312,-0.61,0.094,-3.906,69.946,123.596
-1.298,-0.494,0.478,50.598,75.073,114.075
-1.144,-0.503,0.303,0.427,70.129,120.544
-1.099,-0.588,0.31,-26.062,68.726,111.572
-1.061,-0.48,0.255,-55.664,65.002,109.131
-0.893,-0.179,-0.049,-46.936,39.062,84.595
-0.843,-0.095,-0.072,-36.316,33.63,75.623
-0.155,0.599,-0.631,59.082,-27.649,-49.561
0.076,0.946,-1.008,28.137,-67.261,-91.187
-0.033,-1.164,0.401,104.065,-124.329,-140.747
-3.206,-2.01,2.737,165.1,-118.225,-52.246
0.391,0.575,-0.923,-140.015,-52.063,-111.45
-1.047,-0.244,-0.393,36.194,-83.618,-141.663
-1.927,-0.095,-0.969,-1.099,-123.84,-177.551
-1.884,-1.483,-0.202,-13.428,-147.522,-207.031
-2.184,-2.143,1.086,25.391,-143.86,-184.875
-1.695,-1.91,1.649,-30.701,-76.05,-156.616
-0.437,0.759,1.255,-13.611,16.479,11.047
-0.012,-0.678,0.851,95.459,65.369,66.956
-0.973,-0.389,0.59,239.197,134.033,122.437
-2.439,-0.833,-0.888,-64.148,154.663,240.417
-1.585,-0.752,0.233,-30.09,132.08,212.219
-3.046,-1.011,-0.552,-93.14,150.879,264.465
-2.785,-0.127,-0.361,-92.224,122.559,250.305
-1.881,0.671,-0.46,-94.849,88.074,214.05
-0.877,1.021,-0.379,-90.393,67.322,150.269
-0.724,1.215,-0.359,-72.327,55.542,115.784
-0.013,1.189,-0.689,-9.949,1.282,-42.847
0.211,0.127,0.255,43.152,-7.874,-73.303
-0.048,0.125,0.978,-18.311,7.446,-73.486
0.064,-1.489,-0.683,-41.748,-38.818,-36.377
-0.094,-0.58,-1.005,-66.528,-133.85,51.086
-0.209,-0.041,-1.047,-63.538,-128.967,23.804
-0.233,1.698,1.997,-53.528,-107.91,-44.678
-4.0,-1.955,4.0,-53.345,-11.658,177.795
0.224,3.365,-2.842,-472.961,179.199,57.068
0.155,-0.73,0.664,58.777,-140.747,-120.544
-0.727,-0.222,-1.716,131.531,-77.698,-78.491
-1.099,-0.463,0.128,16.785,-65.674,0.305
-1.0,-0.1,-0.355,-12.207,-75.5,-66.956
-2.69,-0.328,-0.589,-48.645,-184.814,-186.829
-1.803,-0.659,-0.069,-37.842,-171.936,-194.153
-2.322,-1.532,1.184,2.625,-143.066,-139.282
-1.506,-0.875,1.329,39.429,-73.73,-97.351
-1.382,-0.737,1.588,117.371,-44.678,-52.246
-0.652,-0.84,1.487,108.704,46.082,-19.836
0.315,-0.372,0.655,90.637,120.239,16.357
0.211,-0.45,0.395,101.929,136.78,29.602
-0.66,-0.832,0.215,130.432,132.324,108.582
-4.0,-2.456,-1.683,-27.283,141.357,184.204
-2.86,-0.876,-1.657,-217.163,87.585,225.83
-1.26,-0.112,-0.065,31.006,177.063,166.443
-2.405,0.039,-0.607,-133.301,123.596,201.538
-1.65,0.463,-0.705,-61.646,71.167,141.907
-0.987,0.831,-0.642,-31.311,75.867,137.756
-0.601,1.016,-0.488,27.71,19.592,125.122
-0.422,0.83,-0.109,21.301,-6.47,74.768
-0.409,0.648,-0.113,-14.343,-18.616,20.935
-0.353,0.382,0.084,-37.048,-33.142,-46.082
-0.006,-0.107,0.328,-64.819,-17.883,-57.495
0.152,-1.819,-0.798,-9.949,-27.893,-5.615
-0.071,-1.418,-0.285,39.795,-107.117,57.251
-0.972,-0.704,-0.214,102.112,23.621,37.17
-4.0,-3.988,2.109,125.854,-14.282,20.142
-4.0,-4.0,4.0,27.222,-4.639,187.134
-0.191,4.0,-3.356,-312.988,157.227,112.0
-0.402,-1.329,1.375,234.192,-197.388,-100.281
-0.791,0.473,-0.803,363.464,-40.649,-50.293
-3.201,-1.316,0.364,64.514,-37.903,104.065
-0.594,-0.559,-0.448,-141.113,-9.521,-49.377
-1.523,-0.016,-0.439,-107.849,-61.89,-87.83
-1.178,-0.251,-0.284,-91.187,-70.496,-89.844
-1.14,-0.331,-0.147,-60.425,-79.163,-88.257
-0.982,-0.356,-0.175,-67.81,-64.331,-70.618
-0.872,-0.156,-0.12,-35.95,-84.9,-62.073
-0.912,-0.198,0.181,1.709,-84.717,-59.814
-1.052,-0.006,0.029,-0.488,-73.608,-51.27
-0.956,0.141,0.01,3.479,-81.055,-54.688
-0.832,0.179,0.024,29.053,-83.862,-63.232
-0.741,-0.263,-0.128,59.204,-61.523,-56.824
-0.912,-0.457,-0.005,80.261,-78.125,-33.997
-0.884,-0.178,-0.147,-62.378,-14.771,-40.833
-0.885,-0.07,-0.207,-26.917,-50.293,-45.959
-1.09,-0.168,-0.219,77.82,-38.94,-51.941
-1.279,-0.19,-0.089,63.782,-35.339,-39.917
-1.109,-0.332,-0.108,36.987,-21.667,-29.907
-0.908,-0.316,0.015,10.559,-16.968,-14.16
-1.004,0.083,-0.151,20.081,-1.465,-7.019
-0.92,0.132,-0.258,44.434,-4.944,-12.268
-0.92,0.032,-0.273,54.688,-7.324,-15.503
-0.922,-0.193,-0.203,47.363,-12.268,-23.315
-0.896,-0.23,-0.167,24.231,-16.907,-24.78
-0.916,-0.066,-0.197,-13.367,-14.038,-18.188
-0.974,-0.009,-0.215,-8.24,-11.536,-17.517
-1.023,0.015,-0.212,-5.249,-15.32,-16.724
-1.052,-0.01,-0.2,-17.09,-13.184,-21.423
-1.042,-0.016,-0.148,-14.221,-13.062,-20.203
-1.013,-0.007,-0.133,-5.859,-7.446,-14.893
-0.972,-0.01,-0.222,-5.493,-0.305,-11.108
-0.95,-0.005,-0.239,-3.723,0.183,-9.155
-0.919,0.075,-0.245,7.141,-0.549,-1.16
-0.922,0.054,-0.241,10.193,-1.465,-1.648
-0.939,0.023,-0.249,4.456,-4.883,-5.127
-0.964,0.036,-0.241,-2.991,-6.775,-7.019
-0.964,0.064,-0.245,-7.996,-6.592,-7.446
-0.962,0.077,-0.24,-9.46,-5.493,-9.033
-0.972,0.067,-0.228,-6.287,-6.226,-9.705
-0.993,0.045,-0.218,-1.648,-7.996,-9.827

-0.865,-0.585,0.299,53.711,19.714,16.907
-0.891,-0.534,0.343,56.58,28.137,23.987
-0.914,-0.458,0.339,55.298,35.767,29.541
-0.949,-0.386,0.321,52.49,41.565,34.729
-1.063,-0.292,0.289,45.959,53.04,42.786
-1.293,-0.413,0.367,46.997,77.82,52.734
-1.432,-0.735,0.564,52.551,100.037,81.665
-1.44,-0.681,0.604,51.88,105.164,111.511
-1.391,-0.213,0.442,52.917,103.76,127.869
-1.364,0.097,0.004,60.059,90.332,132.141
-1.344,-0.173,0.156,66.589,99.426,130.615
-1.418,-0.604,0.485,100.281,122.375,139.709
-1.331,-0.533,0.395,89.355,122.314,155.151
-1.042,-0.358,-0.062,-30.09,96.802,121.826
-0.947,-0.272,-0.174,-36.133,88.806,110.474
-0.651,-0.069,-0.125,-30.701,49.011,70.19
-0.326,0.166,-0.218,-50.537,45.044,18.127
-0.201,0.282,-0.424,40.771,-10.254,-31.189
-0.083,0.626,-0.642,39.734,-44.983,-91.553
-0.026,0.948,-0.519,46.082,-131.775,-156.189
-4.0,-0.553,3.044,300.781,-115.723,-8.484
-0.045,0.542,0.382,-113.586,-14.587,-80.688
-0.057,0.069,0.233,67.566,-88.745,-119.568
-0.698,-0.598,-0.043,102.356,-65.918,-108.704
-2.26,-0.714,-0.182,32.349,-54.199,-90.088
-1.479,-0.27,-0.08,-18.982,-28.564,-110.657
-0.842,0.231,-0.552,-4.7,-84.839,-153.87
-2.03,0.089,-0.946,-34.79,-96.924,-181.152
-2.122,-0.483,-0.845,-58.35,-128.845,-220.825
-2.514,-1.57,0.145,110.046,-177.246,-181.885
-2.193,-2.28,1.216,32.715,-161.865,-175.11
-1.595,-1.796,1.457,-2.258,-98.267,-151.55
-1.297,-1.88,1.309,-124.634,-60.303,-94.727
-0.729,-0.654,1.575,-140.137,5.981,-6.836
-0.15,-0.194,0.556,47.791,46.082,3.052
0.183,-0.614,0.387,60.303,50.598,43.823
-1.297,-0.991,0.609,108.093,152.771,112.854
-3.098,-1.36,-0.293,-16.785,208.008,217.651
-2.52,-0.29,-0.44,-66.772,200.195,202.82
-2.304,-0.202,-0.097,-12.695,158.813,220.398
-3.004,-0.612,-0.77,-113.403,178.101,280.518
-2.212,0.573,-0.743,-34.485,114.014,236.389
-1.829,0.755,-0.751,-28.32,99.915,222.656
-1.01,0.913,-0.686,-28.259,79.834,189.392
-0.268,1.475,-0.641,18.616,4.944,62.744
0.115,1.148,-0.648,-11.414,-21.912,-18.616
0.273,0.269,-0.355,97.168,-50.415,-73.364
0.042,0.173,0.363,23.987,-19.287,-111.389
-0.166,-0.123,0.576,-127.319,-38.452,-99.609
-0.205,-1.242,-0.355,-122.742,-55.603,-45.166
0.009,-1.129,-1.336,-95.459,-79.468,22.949
-0.376,0.964,-0.53,1.282,-121.582,-10.376
-4.0,2.032,-0.026,-71.716,4.944,106.567
2.065,3.511,-1.727,-107.3,-119.751,-53.345
-1.137,-0.607,-1.185,230.713,-141.418,-65.552
-2.558,-0.785,0.276,51.697,-78.003,-26.184
-1.367,-0.245,-0.677,-30.151,-140.869,-148.376
-0.834,-0.527,1.479,153.015,26.123,-13.977
-0.41,-1.042,0.982,87.402,153.198,100.647
-3.514,-1.843,-1.025,-22.4,166.565,129.578
-1.266,0.981,-0.797,-7.996,100.647,136.108
-0.601,0.817,-0.565,81.482,-79.956,-3.113
-0.571,-0.088,0.577,28.137,-61.707,-68.359
-0.38,-0.625,0.059,-101.318,-70.862,-96.741
-0.399,-1.25,-0.442,-85.876,-59.326,-31.006
0.245,1.396,3.742,-67.078,12.817,-128.052
-4.0,-4.0,3.812,-44.983,-54.626,78.735
0.073,1.87,-1.45,-480.347,145.691,45.959
0.941,2.448,-1.945,-264.832,-14.648,-77.576
-1.328,-1.456,0.515,92.651,-47.668,27.466
-1.635,0.09,-0.424,69.275,-115.417,-50.537
-1.068,-0.671,0.825,18.433,-42.48,-100.098
-0.469,-0.163,0.07,42.847,7.263,-32.959
-0.563,-0.092,0.026,67.2,7.874,-20.325
-3.48,-1.345,-1.011,-28.687,116.882,125.0
-1.265,-0.006,-0.141,52.734,36.133,104.675
-2.01,0.026,-0.326,-11.475,63.904,106.995
-1.243,0.466,-0.506,25.208,-5.615,72.937
-0.812,0.233,-0.035,-22.156,-27.466,18.86
-0.925,0.175,-0.17,-78.918,-37.048,-44.922
-0.606,0.195,-0.316,-52.673,-41.077,-42.175
-0.332,0.109,-0.12,-60.913,-34.912,-48.34
-0.581,0.127,-0.129,-63.477,-56.396,-60.547
-1.401,0.111,-0.391,-84.106,-77.393,-82.031
-1.077,0.111,0.622,4.211,-76.66,-83.557
-1.462,-0.61,-0.076,6.287,-42.236,-54.077
-1.175,-0.401,-0.454,-32.837,-41.138,-39.001
-0.981,-0.468,0.59,23.865,-46.448,-31.921
-0.896,0.106,-0.09,-40.283,-18.25,-47.485
-0.985,-0.404,-0.333,-6.409,-31.372,-35.95
-0.952,-0.218,-0.328,-30.212,-28.87,-31.86
-0.925,-0.169,-0.154,-39.185,-35.828,-34.363
-0.951,0.048,-0.087,-13.062,-32.776,-33.752
-1.007,-0.192,-0.039,4.944,-23.804,-35.461
-0.995,-0.378,-0.102,-0.305,-16.907,-18.555
-0.995,-0.224,-0.159,-22.949,-11.902,-5.005
-0.998,-0.101,-0.215,-20.874,-3.235,-3.479
-0.978,-0.013,-0.192,2.869,2.258,4.761
-0.977,-0.001,-0.211,3.235,2.625,5.798
-0.943,-0.037,-0.215,2.625,3.967,0.427
-0.938,-0.055,-0.234,2.869,2.869,-0.244
-0.957,-0.074,-0.236,-1.648,0.61,-0.427
-0.961,-0.07,-0.241,-1.404,-0.549,-0.427
-0.973,-0.048,-0.2,4.639,-1.16,-1.221
-0.974,-0.045,-0.182,5.615,-1.343,-1.16
-0.964,-0.057,-0.192,2.808,-2.075,-0.916
-0.967,-0.062,-0.233,0.305,-2.991,-0.244
-0.971,-0.065,-0.226,2.014,-3.418,-0.061
-0.953,-0.043,-0.231,6.958,-3.113,1.587
-0.957,-0.033,-0.199,9.46,-2.563,1.587
-0.967,-0.078,-0.212,10.376,-2.258,1.648
-0.964,-0.067,-0.213,9.399,-2.808,1.709
-0.959,-0.064,-0.219,2.319,-2.319,-0.61
-0.957,-0.063,-0.217,1.404,-2.319,-0.916
-0.972,-0.069,-0.22,0.366,-2.441,-1.16
-0.969,-0.066,-0.219,-0.183,-2.197,-1.221
-0.968,-0.064,-0.21,-1.221,-1.343,-0.793
-0.963,-0.064,-0.21,-2.258,-0.916,-0.488
-0.971,-0.067,-0.22,-2.258,0.244,-0.793

-0.853,-0.589,0.284,29.907,12.268,5.005
-0.83,-0.651,0.313,33.997,18.127,11.597
-0.811,-0.681,0.329,37.109,23.621,19.836
-0.813,-0.603,0.305,38.94,34.912,36.743
-1.155,-0.186,0.06,-4.7,72.632,57.861
-1.242,-0.422,0.164,28.625,72.754,78.979
-1.33,-0.263,0.276,47.119,66.895,106.75
-1.46,-0.278,0.23,15.93,62.073,110.718
-1.342,-0.279,0.357,23.499,76.66,99.487
-1.16,-0.398,0.23,23.376,68.237,87.524
-1.119,-0.481,0.162,4.639,67.444,87.646
-0.916,-0.496,0.169,-27.71,55.908,80.383
-0.779,-0.292,0.067,-25.818,45.166,58.533
-0.547,-0.158,0.012,-19.043,26.062,37.659
-0.355,-0.183,-0.112,17.639,-2.563,12.817
-0.351,-0.155,-0.274,33.325,-31.799,-9.644
-0.281,0.479,-0.57,38.025,-55.969,-52.185
-0.083,0.606,0.126,39.429,-100.525,-99.976
-2.362,-2.091,2.553,151.855,-103.699,-7.874
-0.223,0.379,-0.231,-154.541,-9.033,-56.458
-1.099,-0.4,-0.109,62.744,-47.363,-72.083
-1.623,-0.018,-0.574,26.55,-75.439,-122.009
-1.733,-0.332,-0.833,0.305,-110.84,-193.054
-2.098,-1.345,-0.518,8.057,-175.171,-195.374
-1.665,-1.801,1.9,46.082,-149.841,-166.626
-1.103,-1.706,1.471,-44.983,-52.368,-73.181
-0.271,-0.061,1.457,-23.682,19.104,-7.69
0.276,-0.941,0.249,59.448,57.922,41.809
-0.93,-1.174,0.684,104.492,145.203,101.318
-3.158,-1.221,-0.452,20.203,164.917,203.43
-2.829,-0.571,-0.405,-52.002,151.672,203.369
-2.981,-0.401,-0.51,-106.323,175.598,248.535
-2.599,0.278,-0.489,-13.611,129.822,244.69
-1.025,0.773,-0.479,-6.836,49.683,184.937
-0.557,1.062,-0.431,-6.836,-12.939,41.565
-0.065,0.882,-0.687,-20.264,-40.894,-76.172
0.111,0.299,0.269,10.864,15.015,-130.737
-0.028,0.062,0.837,-123.047,26.794,-116.211
0.207,-1.615,-1.118,-56.824,-65.674,7.141
-0.003,0.51,0.09,17.334,-128.662,-22.705
-3.703,0.129,3.949,195.801,-69.824,202.637
2.062,3.114,-2.043,-29.358,-78.918,5.127
-0.538,-0.387,-1.37,128.052,-77.881,-62.622
-2.438,-0.696,0.667,-8.972,-75.562,-78.247
-1.034,-0.179,-0.458,-52.795,-129.517,-164.001
-1.965,-0.758,0.218,-101.135,-122.986,-172.791
-1.4,-0.917,0.773,-31.006,-87.097,-124.39
-0.681,-0.369,1.115,70.679,-20.325,-43.884
-0.45,-0.168,0.495,170.166,50.72,-15.564
-0.151,-0.696,0.033,20.752,80.017,-13.245
-0.016,-1.272,0.957,121.887,95.947,36.621
-3.377,-2.236,0.046,15.198,135.254,94.727
-0.761,-0.929,0.119,-23.926,72.998,156.189
-2.534,0.079,-0.477,-125.854,133.24,177.856
-1.901,0.468,-0.709,19.226,98.328,175.537
-1.165,0.776,-0.377,56.946,48.828,177.124
-0.844,0.617,-0.375,66.711,-8.911,116.943
-0.73,0.573,-0.203,20.935,-56.824,26.001
-0.351,0.14,0.332,-13.489,-35.034,-39.246
0.003,0.233,0.056,-160.339,-5.371,-90.088
0.164,-0.789,-0.161,-171.814,-21.179,-59.937
-0.177,-0.719,-0.655,102.966,-81.116,-22.339
-4.0,-3.635,-0.116,96.069,99.731,-60.364
-0.743,1.019,-1.227,-179.199,163.513,140.381
0.366,0.006,-0.424,-106.14,-48.95,-65.552
-1.355,-0.88,-0.534,240.417,-86.914,-29.724
-1.108,-0.379,0.266,-1.587,17.212,15.259
-1.235,0.073,-0.281,-37.598,-78.491,-66.406
-1.275,-0.429,-0.099,20.264,-83.008,-77.759
-0.71,-0.728,0.206,-78.613,-9.216,-98.816
-0.714,-0.266,0.036,-3.235,-30.884,-41.748
-0.845,-0.19,0.092,43.457,-46.936,-40.771
-0.895,-0.465,0.446,51.025,-27.649,-42.358
-0.679,-0.642,0.833,55.847,10.132,-43.762
-1.771,-0.923,0.172,57.129,55.908,-5.554
-1.071,-0.547,-0.008,-2.808,52.551,44.739
-1.003,0.095,-0.495,-12.756,65.002,56.702
-1.353,-0.049,-0.391,-5.432,28.259,37.781
-1.02,0.103,-0.273,75.073,-7.629,51.941
-0.895,0.082,-0.079,10.559,-3.418,21.729
-0.909,-0.035,-0.029,-67.017,-30.273,-27.832
-0.866,0.135,-0.098,-98.022,-26.123,-59.326
-0.629,-0.01,-0.176,-37.964,-32.227,-64.575
-0.786,-0.014,-0.201,-38.452,-61.707,-43.518
-1.113,0.092,0.067,-24.475,-73.914,-40.71
-1.164,-0.764,0.011,14.099,-29.114,-20.264
-1.059,0.089,-0.141,10.132,-40.588,-27.649
-1.181,-0.526,0.347,35.828,-49.011,-43.457
-0.866,-0.415,0.035,-45.654,-7.812,-20.996
-0.963,0.136,-0.288,-72.632,-22.583,-39.429
-0.934,-0.319,-0.163,-23.376,-28.076,-44.25
-0.933,-0.234,-0.167,-15.869,-32.715,-26.917
-0.974,-0.026,-0.068,-13.0,-37.476,-25.574
-0.999,-0.097,-0.043,-0.793,-26.062,-27.954
-0.973,-0.172,-0.085,-4.211,-18.86,-24.841
-0.952,-0.189,-0.19,-9.399,-17.761,-19.409
-0.966,-0.192,-0.184,-13.245,-18.921,-13.367
-0.982,-0.098,-0.158,-11.108,-14.465,-12.451
-0.979,-0.127,-0.161,-10.376,-8.667,-9.949
-0.975,-0.083,-0.193,-5.127,-7.629,-5.066
-0.984,-0.077,-0.209,-0.305,-4.578,-1.587
-0.959,-0.104,-0.207,1.892,-1.465,-1.465
-0.974,-0.067,-0.209,-1.282,-2.075,0.122
-0.969,-0.06,-0.213,2.258,-3.052,-1.038
-0.969,-0.042,-0.214,1.77,-4.333,-1.282
-0.961,-0.057,-0.214,3.113,-4.761,-1.587
-0.967,-0.068,-0.216,3.235,-4.333,-1.404
-0.999,-0.064,-0.217,3.906,-3.418,-0.671
-0.962,-0.07,-0.223,2.014,-3.601,-1.221
-0.95,-0.041,-0.244,-2.38,-3.418,-1.526
-0.96,-0.048,-0.241,-1.282,-4.639,-2.808
-0.958,-0.051,-0.23,-1.587,-3.479,-2.258
-0.964,-0.061,-0.23,-4.089,-4.395,-3.174
-0.964,-0.054,-0.234,-5.005,-3.479,-2.869
-0.961,-0.059,-0.238,-0.61,-2.625,-2.441
-0.966,-0.043,-0.245,1.16,-3.174,-1.831
-0.958,-0.044,-0.252,3.052,-3.235,-1.648
-0.956,-0.052,-0.246,3.784,-3.174,-1.953
-0.957,-0.054,-0.243,2.319,-3.54,-1.953

-1.045,-0.356,-0.237,6.958,-11.047,-6.836
-1.093,-0.304,-0.242,4.822,-10.071,-3.662
-1.088,-0.196,-0.257,0.732,-10.437,-1.709
-1.053,-0.054,-0.257,-3.357,-12.085,-0.854
-0.917,0.232,-0.113,3.235,-9.155,-1.343
-0.807,-0.017,-0.068,20.63,6.409,3.662
-0.875,-0.12,-0.104,31.189,18.127,14.038
-0.897,-0.129,-0.088,37.048,18.799,12.878
-0.84,-0.276,0.04,53.101,22.095,20.874
-0.89,-0.543,0.225,73.303,32.043,24.231
-0.857,-0.903,0.311,67.444,63.721,46.875
-0.972,-0.468,0.383,18.799,83.679,72.205
-1.592,-0.491,0.565,-10.681,125.793,78.979
-1.399,-0.297,0.138,54.321,112.488,136.353
-1.096,-0.415,-0.034,62.683,80.139,123.657
-1.252,-0.685,0.477,100.281,92.773,143.25
-0.95,-0.492,0.198,13.611,71.716,113.953
-0.855,-0.601,0.165,-35.889,57.129,88.196
-0.671,-0.355,0.003,-87.585,42.969,60.913
-0.524,0.035,0.133,-111.267,29.419,7.324
-0.334,0.227,-0.343,6.775,-0.977,-25.879
-0.192,0.476,-0.382,70.679,-26.001,-45.349
-0.151,0.432,-0.241,84.045,-98.206,-104.187
-1.064,-3.401,0.009,174.255,-107.727,-64.148
-0.583,0.375,0.133,-145.081,-13.489,-85.083
-0.136,0.358,-0.179,-15.808,-91.309,-97.961
-1.147,-0.467,0.01,56.641,-48.828,-92.346
-1.378,-0.435,0.125,24.536,-28.015,-85.083
-1.305,0.144,-0.477,30.884,-72.815,-124.573
-1.901,-0.253,-0.609,40.161,-92.102,-167.664
-2.57,-1.348,-0.059,156.311,-133.911,-188.721
-2.146,-3.964,1.079,-74.158,-92.041,-249.207
-1.22,-2.882,1.5,-56.702,-23.865,-111.572
-0.419,0.243,0.751,-86.975,40.344,3.967
0.3,-0.623,-0.105,-9.766,80.688,18.921
-0.326,-0.905,1.191,93.323,45.41,125.732
-1.026,-0.749,1.531,177.307,51.025,138.794
-2.04,-0.228,-0.149,25.391,120.361,221.619
-2.751,-0.489,-0.531,-69.885,163.269,261.353
-2.552,0.037,-0.589,-45.227,135.071,262.451
-1.211,0.751,-0.46,-16.663,47.668,197.266
-0.325,1.281,-0.656,-84.839,14.954,74.524
0.029,1.152,-0.838,29.358,-73.73,-34.485
-0.065,0.176,-0.003,125.061,-48.401,-101.562
-0.153,-0.142,0.904,-45.715,-21.118,-91.431
0.058,-1.949,-1.048,-109.741,-84.351,44.189
-0.561,2.438,4.0,76.172,-69.58,-52.612
-0.592,1.584,0.606,-175.171,-7.263,74.341
-4.0,-1.223,-0.395,175.049,-88.074,-98.755
-0.953,-0.315,0.059,-3.662,-40.771,-36.133
-1.905,-0.862,-0.363,-18.921,-159.241,-194.58
-1.415,-1.808,1.136,-9.338,-104.858,-126.038
-1.044,-0.592,1.313,40.955,-8.667,-41.87
-0.286,-0.366,0.779,93.628,76.599,-11.658
0.237,-0.628,0.405,65.125,91.187,-3.479
-0.442,-0.662,0.579,123.413,133.789,83.923
-1.223,-0.152,0.191,37.781,136.23,197.449
-2.794,0.005,-0.217,-122.986,137.329,206.543
-1.946,0.771,-0.718,-102.051,74.402,170.349
-0.531,1.302,-0.705,27.954,45.898,124.817
-0.215,0.733,-0.581,21.423,-24.658,63.11
-0.632,0.272,0.047,5.127,-83.74,-39.978
-0.63,0.445,0.515,-72.144,-13.611,-97.351
-0.121,-0.229,-0.207,-80.505,-65.308,-53.955
-0.364,-0.905,-0.482,-89.417,-59.875,47.974
0.306,1.713,2.097,118.774,-49.622,-68.542
-0.619,-0.11,-1.148,54.871,-21.851,-71.106
-2.969,-1.219,-0.306,209.229,-87.036,-46.204
-0.996,-0.211,0.132,19.592,-22.156,-10.742
-1.028,-0.928,0.4,21.729,-96.741,-85.815
-0.9,-0.707,0.552,-28.748,45.471,-58.35
-0.791,0.152,0.204,11.78,20.569,-26.428
-0.538,-0.693,0.587,131.592,29.907,-13.733
-0.455,-0.826,-0.264,62.866,79.285,20.386
-2.261,-1.661,-0.471,-3.235,101.44,136.536
-1.2,-0.298,0.013,10.315,14.099,102.661
-2.189,0.28,-0.258,1.831,49.561,94.788
-1.713,-0.067,-0.218,-4.211,3.174,67.444
-0.951,0.619,-0.227,4.639,9.094,78.064
-0.878,0.325,-0.273,5.249,-48.767,3.967
-0.859,0.312,-0.28,10.864,-48.889,-31.372
-0.423,0.199,-0.164,-32.715,-41.626,-54.077
-0.385,0.184,0.01,-49.866,-37.231,-53.284
-0.622,-0.026,0.037,-136.658,-39.917,-91.003
-1.072,-0.215,0.054,-89.478,-74.768,-98.328
-1.214,-0.117,0.479,-79.407,-28.381,-24.78
-1.182,0.663,-0.723,-15.503,-25.452,-67.993
-1.133,-1.535,0.377,174.316,-73.364,2.991
-0.869,-0.557,0.184,1.099,5.859,-14.526
-0.984,-0.223,-0.133,-20.996,-43.823,-49.377
-0.995,-0.219,-0.173,-53.223,-48.096,-46.509
-0.899,-0.006,-0.201,-65.002,-35.156,-54.443
-0.964,0.042,-0.132,-24.597,-42.236,-44.922
-0.955,-0.129,-0.151,7.629,-24.414,-35.583
-0.963,-0.294,-0.136,-0.793,-25.33,-27.1
-0.964,-0.045,-0.203,5.615,-8.362,-3.784
-0.949,-0.034,-0.281,-0.244,-8.972,-1.892
-0.951,-0.055,-0.265,0.61,-3.296,-1.343
-0.956,-0.082,-0.268,4.578,-0.244,-0.732
-0.96,-0.054,-0.268,-4.028,-0.671,-1.526
-0.954,-0.025,-0.281,0.61,-1.099,-1.465
-0.945,-0.022,-0.282,5.005,0.427,-1.831
-0.952,-0.049,-0.276,3.784,-0.122,-1.343
-0.958,-0.061,-0.261,-2.441,-0.61,-2.014
-0.948,-0.022,-0.279,0.488,-0.183,-1.221
-0.954,-0.018,-0.268,1.892,-0.366,-1.221
-0.949,-0.017,-0.272,1.526,0.0,-1.343
-0.955,-0.015,-0.268,1.282,1.099,-1.038
-0.949,-0.016,-0.28,0.061,1.221,-0.61
-0.955,-0.005,-0.268,1.953,1.038,-0.916
-0.945,-0.013,-0.257,3.235,1.221,-0.732
-0.955,-0.031,-0.26,1.709,1.221,-1.099
-0.951,-0.037,-0.269,-0.61,0.977,-1.038
-0.953,-0.015,-0.267,-2.869,0.488,-1.282
-0.951,-0.015,-0.274,0.183,0.732,-0.854
-0.952,-0.011,-0.27,-0.061,0.427,-0.854
-0.952,-0.003,-0.265,-0.366,0.305,-0.854
-0.952,-0.004,-0.268,1.953,0.488,-0.488
-0.95,-0.014,-0.266,2.869,0.488,-0.427

-0.897,-0.503,0.319,26.733,-1.343,-15.198
-0.883,-0.616,0.431,32.898,2.197,-11.475
-0.735,-0.858,0.413,38.025,40.405,38.33
-1.38,-0.689,0.194,14.465,53.955,123.291
-1.383,-0.197,-0.05,-18.433,52.673,114.929
-1.319,-0.447,0.296,-7.935,82.092,109.497
-0.953,-0.24,0.044,-49.5,65.308,88.074
-0.47,-0.086,0.021,40.222,20.813,20.752
-0.205,0.326,-0.417,42.175,-20.752,-61.462
-0.497,-1.997,-0.385,122.253,-100.22,-122.437
-0.197,0.355,0.075,12.939,-100.342,-73.608
-1.754,-0.418,0.03,54.382,-46.875,-97.717
-1.986,-0.657,-1.223,-46.082,-112.915,-217.896
-1.477,-1.801,1.709,-65.674,-79.773,-135.559
-0.028,-0.488,0.438,-12.695,101.562,12.878
-1.55,-0.694,-0.466,185.12,152.161,150.879
-2.452,-0.252,0.021,17.883,189.575,253.052
-1.656,0.66,-0.663,-39.734,54.138,179.016
-0.087,1.357,-0.638,-47.18,-11.414,-35.583
-0.232,0.051,0.806,36.255,-15.015,-126.892
0.048,0.624,-0.304,-78.125,-143.982,7.08
2.808,3.581,-4.0,-220.947,63.843,-26.794
-4.0,-1.905,-0.549,28.259,-79.956,-62.927
-2.253,-0.671,0.23,-76.721,-104.492,-181.702
-0.553,-2.083,1.315,115.234,13.611,-5.493
-0.246,-0.982,0.574,64.697,114.197,75.745
-3.729,-1.329,-1.979,-53.589,0.977,226.44
-2.325,0.229,-0.694,-90.637,56.946,147.339
-0.279,1.498,-0.909,25.085,15.015,51.697
-0.512,-0.179,0.833,-68.97,-31.616,-117.554
-0.489,-0.913,-0.241,-53.04,-97.168,35.156
0.822,2.395,-2.764,87.158,-150.085,-82.825
-2.328,-2.156,0.424,112.732,-83.313,46.753
-1.092,-0.556,0.179,-13.367,-89.111,-81.909
-0.722,-0.366,0.279,-43.213,-57.8,-72.205
-0.781,-0.086,0.356,71.777,15.137,-50.72
-1.542,-0.893,-0.132,-68.298,73.364,54.688
-1.823,-0.08,-0.303,-24.17,21.362,48.889
-0.897,0.428,-0.227,-1.221,-8.85,25.024
-0.785,0.196,-0.277,-36.194,-21.301,-34.607
-0.643,-0.054,-0.138,-45.898,-40.588,-54.504
-1.22,-0.935,0.246,-19.104,0.732,-48.706
-0.945,-0.087,0.034,107.727,-84.229,-51.88
-0.947,0.226,-0.229,-33.569,-40.955,-48.401
-0.977,-0.204,-0.414,-24.109,-25.635,-26.184
-0.985,0.067,-0.055,-13.733,-31.311,-20.447
-0.961,-0.223,-0.187,7.629,-21.484,-13.55
-0.971,-0.119,-0.239,-20.203,-13.306,-5.615
-0.96,-0.042,-0.235,3.235,-4.761,-1.526
-0.953,-0.096,-0.29,1.038,-1.099,-1.526
-0.949,-0.005,-0.266,-0.061,-5.737,-1.343
-0.961,-0.085,-0.262,3.235,-4.272,-2.258
-0.967,-0.072,-0.239,6.958,-0.671,0.427
-0.948,-0.058,-0.253,1.587,-1.099,-0.916
-0.96,-0.069,-0.245,-4.883,-0.244,-1.587
-0.949,-0.011,-0.283,-4.761,-1.343,-2.991
-0.951,-0.038,-0.276,-0.732,-1.587,-1.648
-0.954,-0.037,-0.259,-0.61,-2.258,-1.343
-0.952,-0.024,-0.259,-3.479,-0.244,-0.977
-0.958,-0.038,-0.259,-3.174,-0.305,-0.549
-0.953,-0.002,-0.269,-4.7,-0.61,-0.916
-0.942,-0.008,-0.276,-0.366,-0.793,-0.977
-0.952,-0.036,-0.281,0.427,-0.916,-0.549
-0.948,-0.008,-0.283,-2.014,-1.404,-1.038
-0.954,-0.034,-0.276,1.953,-0.183,0.0
-0.948,-0.028,-0.27,0.549,0.061,0.061
-0.948,-0.023,-0.28,-1.099,0.061,-0.671
-0.951,-0.034,-0.278,-2.319,-0.122,-0.793
-0.946,-0.025,-0.276,-0.671,0.183,-0.183
-0.943,-0.019,-0.291,-1.038,0.061,-0.061
-0.949,-0.057,-0.275,6.897,-0.122,0.061
-0.95,-0.036,-0.267,-3.784,0.671,-0.854
-0.946,-0.028,-0.288,-5.737,0.549,-1.038
-0.95,-0.016,-0.276,-1.404,0.793,-0.366
-0.95,-0.038,-0.276,-0.061,1.282,-0.305
-0.95,-0.029,-0.276,-2.319,0.427,-0.793
-0.953,-0.022,-0.271,-0.854,1.038,-0.61
-0.949,-0.031,-0.276,-0.61,0.549,-0.366
-0.955,-0.028,-0.274,-0.488,0.244,-0.488
-0.95,-0.02,-0.261,0.183,0.305,-0.366
-0.947,-0.023,-0.279,0.854,0.061,-0.427
-0.95,-0.009,-0.273,-0.183,0.122,-0.488
-0.948,-0.022,-0.273,1.587,0.305,-0.366
-0.948,-0.022,-0.282,1.526,0.0,-0.183
-0.948,-0.019,-0.275,1.465,-0.366,-0.244
-0.948,-0.014,-0.281,1.465,-0.427,-0.549
-0.947,-0.021,-0.28,0.732,-0.916,-0.916
-0.951,-0.01,-0.275,1.221,0.183,-0.549
-0.952,-0.033,-0.27,1.465,0.671,0.244
-0.951,-0.013,-0.276,-0.305,0.305,0.305
-0.947,-0.01,-0.274,0.854,0.427,-0.061
-0.949,-0.011,-0.278,0.0,0.488,0.183
-0.949,-0.021,-0.273,1.282,0.732,0.244
-0.95,-0.021,-0.272,0.305,0.793,0.244
-0.951,-0.021,-0.273,0.183,0.793,0.305
-0.949,-0.018,-0.274,0.366,1.038,0.61
-0.95,-0.024,-0.276,-0.183,1.343,0.366
-0.948,-0.016,-0.27,-0.122,1.038,0.244
-0.951,-0.019,-0.271,0.183,0.977,0.61
-0.948,-0.026,-0.269,-0.122,0.916,0.488
-0.95,-0.024,-0.27,-1.099,0.244,-0.61
-0.954,-0.019,-0.267,-0.793,0.0,-0.366
-0.947,-0.019,-0.273,-0.183,-0.183,-0.793
-0.952,-0.015,-0.271,-0.488,-0.671,-0.549
-0.953,-0.025,-0.268,0.305,-0.427,-0.305
-0.949,-0.027,-0.27,0.977,0.0,-0.183
-0.949,-0.015,-0.275,0.671,-0.366,-0.488
-0.947,-0.018,-0.276,1.282,0.122,0.244
-0.948,-0.016,-0.278,1.526,0.305,-0.061
-0.95,-0.015,-0.275,-0.244,-0.244,-0.366
-0.952,-0.02,-0.275,0.244,0.0,0.0
-0.946,-0.014,-0.278,0.183,0.305,-0.305
-0.949,-0.012,-0.272,-0.488,0.244,-0.305
-0.949,-0.017,-0.279,-0.671,0.366,0.061
-0.95,-0.014,-0.275,0.183,0.549,0.305
-0.947,-0.016,-0.276,0.427,0.732,0.183
-0.952,-0.025,-0.276,-0.122,0.61,0.0
-0.947,-0.016,-0.271,-0.61,0.732,0.366
-0.949,-0.021,-0.272,-0.122,0.793,0.366

-0.81,-0.635,0.302,51.086,11.658,4.761
-0.788,-0.693,0.376,55.664,18.311,12.085
-0.737,-0.537,0.371,50.659,40.771,34.851
-1.353,-0.346,0.002,26.123,84.473,55.481
-1.203,0.205,0.38,26.489,62.5,119.69
-1.385,-0.449,0.561,41.626,91.797,91.248
-1.02,-0.467,0.222,-22.034,97.229,86.853
-0.821,-0.176,0.016,-6.47,56.213,61.279
0.014,0.762,-0.891,41.931,-33.203,-77.209
0.113,0.391,0.217,45.105,-105.347,-105.53
-0.951,-0.252,-0.086,-1.526,-71.411,-125.793
-1.823,-0.658,-0.439,69.885,-160.034,-184.143
-0.947,-0.972,1.187,-112.061,-31.921,-63.965
-0.546,-0.673,0.452,85.876,91.858,84.717
-2.487,-0.618,0.237,-2.869,138.062,249.268
-1.339,0.78,-0.456,-31.372,47.974,193.176
-0.131,0.967,-0.759,-49.561,-15.869,-54.932
0.007,-0.292,0.923,-153.564,25.757,-78.491
0.161,2.602,0.71,80.383,-117.249,-36.987
1.235,1.214,-3.304,-8.667,-74.89,3.845
-3.994,-1.76,0.35,59.57,-91.003,-53.772
-0.674,-0.148,1.791,53.162,55.664,-13.611
-4.0,-1.756,-1.331,-63.416,51.025,239.38
-2.458,0.082,-0.702,-111.206,120.544,198.547
-0.347,0.418,0.102,-6.714,-57.922,-44.067
-0.517,-0.661,0.451,207.397,-108.826,-43.762
-0.661,-0.188,-0.388,-29.968,-38.818,-16.724
-0.959,-0.116,0.369,31.311,-18.616,-45.898
-0.467,-0.724,0.919,61.584,49.927,-40.955
-1.32,0.492,-0.334,23.743,9.705,75.684
-1.077,0.194,-0.084,-55.42,-26.611,20.203
-0.946,-0.809,0.081,83.374,-64.026,-49.5
-0.937,-0.125,-0.035,-14.526,-39.612,-52.185
-0.941,-0.205,-0.232,-19.409,-34.485,-39.49
-1.012,-0.338,0.07,-7.141,-10.376,-14.832
-1.021,-0.145,-0.103,-11.169,-5.432,4.7
-0.933,-0.036,-0.224,-8.301,1.587,7.141
-0.955,0.027,-0.206,-20.02,-2.747,0.549
-0.983,-0.055,-0.139,-13.916,-3.296,-4.822
-0.975,-0.1,-0.142,2.991,-2.319,4.761
-0.97,-0.107,-0.16,6.47,-1.16,5.127
-0.982,-0.084,-0.192,-1.587,-2.075,3.723
-0.967,-0.058,-0.205,0.366,-6.653,-3.54
-0.966,-0.09,-0.236,-6.592,-5.188,-2.014
-0.972,-0.084,-0.194,-3.967,-3.479,-1.465
-0.966,-0.081,-0.222,3.174,-2.319,1.709
-0.953,-0.075,-0.239,1.892,-1.77,1.648
-0.953,-0.091,-0.234,-2.991,-1.77,0.244
-0.975,-0.084,-0.193,-1.587,-1.038,-0.305
-0.956,-0.103,-0.213,0.122,-0.061,1.343
-0.957,-0.076,-0.226,-2.258,-0.916,-0.366
-0.963,-0.076,-0.223,-1.526,-0.793,-1.038
-0.962,-0.072,-0.231,-1.526,-0.732,-0.854
-0.961,-0.088,-0.224,1.16,-0.366,-0.122
-0.96,-0.079,-0.245,-0.793,-1.099,-1.16
-0.959,-0.081,-0.239,-0.916,-0.427,-0.977
-0.958,-0.071,-0.247,-0.183,-0.061,-0.793
-0.961,-0.073,-0.242,0.0,0.916,0.183
-0.958,-0.071,-0.238,0.61,0.793,0.122
-0.954,-0.053,-0.251,0.244,0.427,0.61
-0.957,-0.066,-0.239,-0.366,1.099,0.183
-0.96,-0.075,-0.23,0.0,0.916,0.793
-0.958,-0.067,-0.227,-0.305,0.671,0.366
-0.961,-0.075,-0.224,0.916,-0.061,0.122
-0.96,-0.076,-0.236,2.258,-0.244,0.061
-0.964,-0.095,-0.219,2.502,1.221,1.526
-0.962,-0.086,-0.228,-0.366,-0.122,-0.671
-0.959,-0.076,-0.23,-1.099,0.183,-0.366
-0.957,-0.068,-0.235,-0.305,0.671,0.0
-0.959,-0.079,-0.23,-0.366,0.61,-0.244
-0.958,-0.078,-0.23,-0.488,0.427,0.305
-0.962,-0.087,-0.23,-1.465,-0.061,-0.977
-0.96,-0.081,-0.227,0.732,-0.183,-0.061
-0.959,-0.079,-0.236,0.122,-0.549,-0.549
-0.957,-0.082,-0.242,0.427,0.183,0.122
-0.956,-0.083,-0.243,0.854,-0.061,-0.244
-0.958,-0.071,-0.246,0.61,0.305,-0.732
-0.959,-0.067,-0.243,0.061,0.488,0.0
-0.958,-0.072,-0.243,0.183,0.305,0.0
-0.957,-0.072,-0.235,0.671,0.0,0.122
-0.957,-0.07,-0.234,0.122,0.244,-0.122
-0.958,-0.069,-0.238,-0.061,0.244,-0.122
-0.958,-0.072,-0.239,0.061,0.549,-0.183
-0.958,-0.077,-0.236,-0.366,0.61,0.061
-0.959,-0.073,-0.235,-0.793,0.549,-0.488
-0.959,-0.073,-0.239,0.732,0.854,0.0
-0.961,-0.064,-0.243,-0.122,0.061,0.183
-0.958,-0.074,-0.241,-0.122,0.61,-0.366
-0.954,-0.071,-0.24,1.099,-0.061,0.427
-0.958,-0.065,-0.238,0.427,0.427,-0.122
-0.964,-0.072,-0.234,0.122,0.061,0.183
-0.959,-0.073,-0.236,0.183,0.671,-0.122
-0.958,-0.073,-0.238,0.366,0.977,0.0
-0.96,-0.064,-0.238,-0.244,1.16,0.488
-0.959,-0.067,-0.246,4.7,1.282,1.099
-0.964,-0.087,-0.212,2.991,1.709,1.648
-0.959,-0.063,-0.23,2.197,1.892,1.77
-0.96,-0.078,-0.228,0.854,2.014,0.549
-0.962,-0.081,-0.212,0.549,0.793,0.366
-0.962,-0.08,-0.211,0.549,0.305,0.0
-0.962,-0.07,-0.218,0.305,0.61,-0.366
-0.96,-0.067,-0.222,0.122,-0.732,-1.038
-0.961,-0.062,-0.225,-0.977,0.244,-0.488
-0.964,-0.059,-0.223,-0.366,0.366,-0.305
-0.962,-0.06,-0.22,0.916,0.488,0.061
-0.961,-0.055,-0.226,-0.977,0.427,-0.244
-0.961,-0.06,-0.219,-0.488,0.122,-0.488
-0.96,-0.058,-0.231,-1.465,0.671,-0.122
-0.962,-0.058,-0.225,0.366,0.916,0.061
-0.963,-0.065,-0.221,-0.427,0.671,0.183
-0.962,-0.061,-0.216,-0.671,0.732,-0.305
-0.964,-0.066,-0.215,-1.099,0.549,-0.488
-0.961,-0.057,-0.219,1.953,1.038,0.61
-0.964,-0.062,-0.214,-0.305,0.366,0.122
-0.962,-0.068,-0.217,-0.732,0.122,-0.488
-0.964,-0.063,-0.219,-0.305,0.366,0.0
-0.963,-0.063,-0.221,1.221,0.366,0.305
-0.963,-0.067,-0.216,0.977,0.305,0.732
-0.963,-0.065,-0.215,1.648,0.366,0.671

-0.9,-0.486,0.301,28.87,-0.671,-5.554
-0.926,-0.532,0.376,35.522,7.202,-0.427
-0.953,-0.574,0.407,39.856,17.517,5.92
-0.933,-0.611,0.38,40.039,28.992,13.123
-0.913,-0.603,0.33,37.231,38.757,21.057
-1.005,-0.438,0.198,26.672,50.72,34.973
-1.051,-0.363,0.139,20.996,55.054,37.903
-1.187,-0.259,0.12,13.733,61.707,40.588
-1.253,-0.336,0.166,18.738,65.247,43.091
-1.314,-0.087,0.283,32.043,63.11,90.698
-1.336,-0.054,0.146,18.921,64.209,93.018
-1.31,-0.422,0.438,15.93,76.66,119.507
-1.277,-0.456,0.357,21.301,88.196,131.592
-1.248,-0.478,0.369,17.883,88.074,135.864
-1.177,-0.468,0.288,3.967,96.069,140.869
-0.998,-0.373,0.154,-19.653,87.219,132.141
-0.861,-0.293,-0.072,-14.404,63.843,119.08
-0.775,-0.265,-0.108,-0.366,44.617,106.14
-0.583,-0.116,-0.191,-4.822,30.579,55.481
-0.452,0.324,-0.417,-3.601,8.301,13.123
0.08,1.328,-0.999,-21.484,-56.641,-93.689
0.185,1.449,-1.049,-28.748,-79.895,-107.483
-0.301,-4.0,-0.724,172.546,-94.788,-114.197
-3.809,-1.561,2.101,145.325,-100.769,-51.331
0.343,0.362,-1.308,-166.992,-29.907,-102.966
-0.958,-0.468,-0.248,45.593,-78.369,-97.29
-2.678,-0.54,-0.268,42.969,-77.393,-100.037
-1.931,0.017,-0.906,-47.791,-131.47,-152.344
-2.382,-1.722,0.362,21.118,-158.936,-170.41
-1.916,-1.874,1.245,-40.527,-107.544,-157.104
-1.51,-1.529,1.974,-11.78,-92.651,-105.225
-1.321,-1.35,1.588,-67.139,-55.054,-81.665
-0.428,0.004,0.715,44.739,52.673,-20.325
0.041,-0.981,1.173,72.144,76.66,65.491
-0.635,-0.709,1.326,97.595,102.356,98.877
-3.943,-1.159,-1.402,22.949,151.855,228.149
-1.837,-0.655,0.148,-37.72,203.247,189.88
-1.807,-0.497,0.199,-27.954,229.98,192.688
-2.534,-0.121,-0.32,-51.697,216.37,251.404
-2.764,-0.218,-0.656,-43.274,153.687,257.812
-1.657,0.74,-0.647,-3.479,101.013,231.445
-1.246,0.876,-0.694,-4.211,85.266,218.323
-0.236,1.299,-0.458,0.793,-2.014,95.703
0.125,0.83,-0.631,15.991,-84.351,-79.895
-0.097,0.584,-0.005,0.061,-58.289,-166.321
-0.26,0.221,0.515,-19.47,0.549,-156.128
0.101,-1.967,-0.518,-33.508,-23.682,-36.926
0.12,-1.962,-1.254,-42.908,-52.246,27.1
-0.228,0.095,-0.512,47.424,-120.056,42.358
3.115,4.0,-4.0,-279.602,122.742,15.076
2.276,3.32,-3.766,-232.666,-4.272,-46.753
-0.462,-0.566,-1.758,108.398,-53.833,-71.106
-3.856,-2.085,-0.238,203.003,-100.342,-69.641
-3.59,-1.15,-0.277,-60.73,-43.457,-27.466
-0.688,-0.335,-0.412,-63.782,-100.647,-93.567
-1.655,-0.117,-0.309,-107.178,-137.756,-172.546
-2.439,-0.197,-0.336,-123.962,-123.291,-170.959
-1.832,-0.634,0.49,-73.059,-124.512,-155.518
-1.375,-0.54,1.264,-13.306,-66.528,-99.609
-1.251,-0.341,1.321,15.747,-57.373,-82.886
-0.859,-0.101,1.24,85.144,-33.997,-50.049
-0.511,-0.23,0.318,168.579,43.457,-22.4
-0.34,-0.484,0.056,154.236,49.5,-23.804
0.152,-1.729,0.803,98.511,47.791,24.353
-0.156,-1.106,0.81,149.048,101.562,60.364
-0.302,-0.829,0.23,109.192,127.197,67.139
-4.0,-1.306,-1.507,-123.23,112.976,213.257
-0.947,-0.868,0.251,-126.587,140.93,161.194
-2.855,0.022,-0.316,-111.145,131.104,190.674
-1.214,1.011,-0.768,22.705,87.83,171.814
-0.552,0.613,-0.392,97.046,0.854,120.544
-0.64,0.306,-0.079,32.959,-34.485,49.072
-0.523,0.264,0.211,-16.235,-53.833,-24.78
-0.213,-0.103,0.421,-107.544,-9.766,-80.994
-0.784,-0.317,-0.095,-61.157,-75.378,-54.993
-1.009,-1.001,0.558,77.087,2.625,-30.212
-0.844,-0.941,0.521,93.445,9.277,-16.479
-3.391,-0.714,0.939,-12.085,-15.625,39.124
-1.17,0.074,-0.88,-20.447,93.567,124.634
-0.992,2.11,-1.178,-171.204,41.992,15.137
-1.104,-1.062,-0.171,172.058,-34.058,-61.829
-1.407,-0.485,-0.027,4.517,32.898,33.386
-1.093,-0.38,-0.583,-105.164,-16.174,-36.255
-1.117,-0.042,-0.105,-44.25,-62.988,-54.871
-1.106,-0.265,0.05,-32.898,-48.828,-54.81
-0.906,-0.074,-0.104,0.305,-58.96,-56.519
-0.904,-0.139,-0.088,5.127,-61.279,-57.617
-0.975,-0.398,0.059,15.442,-60.181,-59.509
-0.857,-0.304,-0.107,7.69,-59.326,-51.147
-1.043,-0.165,-0.049,16.357,-54.443,-39.551
-1.017,-0.198,-0.081,8.85,-43.64,-38.513
-0.911,-0.33,-0.167,-0.854,-41.626,-37.903
-0.926,-0.187,-0.237,-4.883,-49.011,-34.729
-1.015,-0.065,-0.387,-22.888,-53.467,-39.062
-0.921,0.077,-0.172,0.61,-46.814,-41.077
-0.951,-0.131,-0.043,24.963,-23.56,-35.95
-0.983,-0.329,-0.088,19.165,-14.099,-24.597
-1.0,-0.294,-0.234,-2.319,-14.709,-16.296
-0.965,-0.147,-0.249,-6.714,-9.644,-12.207
-0.962,0.018,-0.27,2.625,-4.272,-9.827
-0.95,0.068,-0.295,24.658,4.028,-5.432
-0.954,0.047,-0.322,27.039,3.174,-4.761
-0.951,-0.035,-0.328,21.912,-3.479,-7.812
-0.976,-0.198,-0.135,-3.906,-7.202,-14.282
-0.982,-0.169,-0.114,-10.498,-6.958,-11.78
-0.985,-0.106,-0.152,-12.939,-4.15,-5.371
-0.973,-0.045,-0.238,-8.24,-1.831,-1.16
-0.947,-0.021,-0.311,0.305,-2.869,-1.526
-0.941,-0.031,-0.325,1.526,-2.808,-3.174
-0.953,-0.067,-0.282,0.549,-3.235,-3.357
-0.969,-0.047,-0.244,-4.028,-2.747,-2.136
-0.956,-0.062,-0.236,-1.16,-1.16,-1.953
-0.957,-0.058,-0.245,-1.038,-0.977,-1.343
-0.941,-0.005,-0.301,-8.85,-1.404,-3.296
-0.946,0.0,-0.287,-7.507,-1.16,-3.784
-0.948,-0.0,-0.278,-6.409,-1.038,-3.723
-0.959,-0.034,-0.248,-0.366,-0.61,-3.113
-0.961,-0.05,-0.241,-0.122,-0.488,-2.441
-0.956,-0.059,-0.255,-2.686,-0.671,-2.319

-0.91,-0.489,0.286,43.457,0.305,1.099
-0.912,-0.523,0.343,52.551,5.676,8.911
-0.911,-0.522,0.358,60.73,12.512,17.273
-0.917,-0.497,0.386,70.557,19.531,25.574
-0.943,-0.453,0.393,78.735,28.076,33.02
-1.022,-0.43,0.362,94.36,49.072,45.166
-1.043,-0.476,0.368,102.539,57.922,49.927
-1.127,-0.569,0.533,109.009,83.496,86.243
-1.399,-0.71,0.608,88.562,109.07,114.99
-1.373,-0.582,0.492,85.693,122.864,141.418
-1.324,-0.313,0.028,41.748,85.449,159.546
-1.343,-0.0,-0.053,11.719,84.839,149.292
-1.338,-0.423,0.012,8.118,101.685,134.155
-1.403,-0.587,0.227,31.921,109.68,136.475
-1.373,-0.484,0.22,20.203,109.375,138.672
-1.062,-0.463,0.106,-29.053,100.281,119.141
-0.765,-0.257,0.03,-46.509,70.801,90.759
-0.605,-0.253,0.062,-25.818,15.869,47.546
-0.617,-0.295,0.136,-21.301,6.958,32.593
-0.516,-0.157,-0.018,-5.676,-2.319,-10.01
-0.5,0.285,-0.084,8.057,-8.972,-36.56
-0.147,0.6,-0.599,51.514,-85.327,-95.337
-0.104,-0.067,-0.262,81.848,-96.558,-99.67
-1.442,0.057,0.212,-62.866,-7.019,-91.248
-0.057,0.246,-0.209,4.578,-91.614,-96.863
-0.557,-0.265,0.063,41.87,-50.781,-95.093
-1.138,-0.567,-0.122,65.613,-55.115,-86.609
-1.25,-0.369,-0.193,57.19,-59.753,-115.54
-1.411,-0.236,-0.655,49.988,-94.543,-130.432
-1.766,-0.507,-0.789,-2.747,-140.137,-200.745
-1.886,-0.976,-0.545,-14.343,-152.649,-215.149
-2.337,-2.806,1.356,-69.214,-142.883,-192.139
-1.786,-1.849,1.748,-91.675,-92.468,-160.4
-0.297,0.629,0.415,23.132,71.35,-1.831
0.03,-0.739,0.458,100.403,66.406,52.734
-2.13,-1.829,0.707,95.764,173.584,168.152
-2.504,-0.358,-0.049,26.855,166.382,198.181
-2.858,-0.742,-0.324,-118.164,215.82,247.253
-2.38,0.251,-0.73,-100.891,187.561,241.272
-0.76,1.144,-0.758,-14.893,80.933,149.475
0.403,1.489,-1.426,97.656,-56.519,-2.869
-0.098,0.592,0.49,259.827,-54.016,-60.913
-0.295,0.758,1.403,106.995,-31.25,-89.6
-0.444,-1.042,0.151,-113.525,-18.311,-121.521
0.127,-1.526,-1.001,-39.856,-131.409,-13.0
0.232,0.554,-0.946,36.316,-127.502,-13.428
-2.118,-3.62,-1.047,5.615,141.724,-158.081
-3.541,1.425,3.886,218.506,-86.121,235.718
-1.067,-0.175,-1.302,156.25,-178.955,-81.543
-1.157,-0.238,-0.493,-17.578,-119.08,-176.88
-1.95,-1.199,0.475,-65.735,-107.605,-171.692
-4.0,-2.175,-0.121,-37.964,159.424,174.744
-3.831,-1.264,-0.577,-244.69,149.658,151.489
-2.219,-0.12,-0.145,33.386,124.084,198.364
-1.196,0.822,-0.936,-19.775,61.951,140.015
-0.096,1.01,-1.127,-33.447,0.793,50.049
-0.335,0.135,0.287,181.091,-49.255,-81.543
-0.146,-2.504,-0.557,-135.803,-78.674,-5.188
-0.033,0.47,-0.672,37.415,-110.535,34.485
2.875,4.0,-4.0,-265.93,63.843,-5.554
-0.922,-0.502,-1.879,116.516,-52.673,-82.581
-3.999,-1.802,-0.359,35.95,21.973,23.621
-0.758,-0.309,-0.285,-37.109,-46.875,-29.602
-1.792,-0.074,0.023,-44.189,-85.388,-115.906
-0.802,-0.014,-0.028,98.816,-24.292,-48.401
-0.359,-0.691,-0.291,-1.526,91.003,6.714
-2.702,-0.811,-1.029,-184.204,101.135,96.985
-1.441,0.022,-0.106,22.522,66.711,96.619
-1.277,0.838,-0.83,51.697,2.075,98.083
-0.864,0.498,-0.401,47.119,-35.583,67.444
-0.902,0.269,-0.273,22.583,-55.481,36.926
-0.984,0.268,-0.003,-66.223,-42.175,-18.555
-0.425,0.329,0.091,-85.388,-6.165,-27.283
-0.287,0.555,-0.029,-101.196,-28.687,-38.147
-0.667,0.44,-0.57,-199.585,-79.041,-58.472
-1.178,0.127,0.659,-50.354,-48.157,-60.059
-0.927,0.224,-0.152,51.697,-31.128,-35.461
-1.156,0.18,-0.458,100.037,-102.356,-67.566
-1.399,-1.258,0.39,201.721,-63.049,-47.058
-0.698,-0.404,-0.235,-68.97,-15.564,-25.635
-0.908,0.027,-0.249,-39.185,-41.077,-48.401
-1.011,-0.139,-0.229,-24.658,-24.17,-35.095
-0.956,-0.097,-0.232,-4.517,-2.686,-6.348
-0.954,0.005,-0.278,-8.606,0.916,-1.648
-0.936,-0.038,-0.272,-0.671,-0.366,-1.465
-0.962,-0.043,-0.246,4.517,2.93,2.808
-0.957,-0.037,-0.25,6.409,3.174,2.075
-0.954,-0.053,-0.234,1.282,2.747,0.244
-0.951,-0.038,-0.235,3.967,2.258,1.16
-0.965,-0.052,-0.219,2.686,1.831,0.427
-0.964,-0.058,-0.227,1.099,1.465,0.305
-0.962,-0.054,-0.23,2.197,2.197,0.305
-0.963,-0.044,-0.221,1.648,1.892,0.305
-0.958,-0.052,-0.218,2.319,1.526,0.732
-0.964,-0.056,-0.216,1.526,1.587,0.366
-0.969,-0.056,-0.21,-1.831,1.404,-0.427
-0.967,-0.036,-0.225,2.319,2.625,1.099
-0.961,-0.036,-0.221,2.502,1.587,-0.61
-0.963,-0.046,-0.215,2.136,1.099,-0.916
-0.968,-0.046,-0.206,0.732,0.122,-0.427
-0.964,-0.047,-0.205,0.122,0.244,-0.671
-0.961,-0.036,-0.218,-0.366,0.854,-1.16
-0.97,-0.039,-0.212,-0.366,0.671,-1.038
-0.97,-0.033,-0.208,1.038,0.793,-0.732
-0.963,-0.043,-0.211,1.648,0.977,-0.427
-0.965,-0.037,-0.212,2.014,0.122,-0.061
-0.964,-0.039,-0.21,1.831,-0.061,-0.305
-0.967,-0.039,-0.212,1.343,-0.366,-0.488
-0.966,-0.032,-0.214,-0.61,-0.305,-0.854
-0.974,-0.036,-0.209,-1.038,0.427,-0.732
-0.972,-0.036,-0.208,0.183,0.977,-0.427
-0.958,-0.027,-0.219,-0.549,0.488,0.183
-0.965,-0.031,-0.216,-0.549,0.244,-0.427
-0.964,-0.03,-0.21,-1.892,-0.183,-0.671
-0.967,-0.038,-0.216,-1.831,-0.061,-0.488
-0.96,-0.028,-0.21,1.892,0.793,1.282
-0.958,-0.028,-0.214,0.793,0.488,0.977
-0.966,-0.033,-0.212,-1.77,-0.061,0.244
-0.965,-0.037,-0.21,-0.671,-0.183,0.488

-0.89,-0.517,0.344,50.537,6.653,0.793
-0.875,-0.6,0.415,60.181,13.184,7.263
-0.841,-0.677,0.453,68.42,20.63,15.564
-0.805,-0.747,0.451,73.425,28.931,25.391
-0.713,-0.784,0.385,78.43,43.64,48.34
-0.692,-0.771,0.329,78.796,50.476,59.387
-0.854,-0.673,0.296,75.073,82.886,79.407
-1.287,-0.669,0.353,19.958,123.657,90.271
-1.59,-0.554,0.524,-16.846,117.493,131.042
-1.445,-0.285,0.132,-13.916,82.703,145.264
-1.388,0.151,0.024,-0.183,54.504,153.687
-1.375,-0.449,0.614,65.613,108.032,117.798
-1.348,-0.432,0.5,72.632,87.036,124.756
-1.063,-0.553,0.109,-4.333,68.542,100.281
-1.009,-0.552,0.056,-24.109,61.584,93.506
-0.923,-0.367,-0.15,-64.636,25.391,69.519
-0.541,0.2,-0.124,-57.861,30.09,3.723
-0.033,0.399,-0.419,-2.38,-5.31,-4.089
0.162,0.672,-0.652,42.786,-56.946,-55.298
-0.382,-2.49,0.412,116.76,-149.841,-83.923
-3.325,-2.917,2.566,156.189,-140.869,-23.682
-0.512,0.857,0.239,-199.524,-8.667,-62.5
0.369,0.689,-0.054,-21.851,-101.685,-81.055
-0.827,-0.122,-0.085,65.247,-69.641,-85.083
-1.453,-0.793,-0.05,37.048,-74.707,-109.924
-1.849,0.197,-0.688,11.78,-104.675,-138.794
-2.046,0.135,-0.829,12.39,-141.724,-186.768
-2.207,-0.698,-0.535,33.386,-136.047,-224.182
-2.406,-2.243,0.679,15.991,-124.451,-207.031
-1.415,-2.076,1.582,-41.504,-74.036,-176.758
-1.309,-1.503,1.659,-10.376,-79.468,-130.066
-0.597,-0.112,0.937,37.781,0.671,2.563
-0.425,-0.143,0.776,50.171,30.884,2.747
0.106,-0.6,1.085,92.346,80.383,67.688
-0.845,-0.178,0.318,188.477,108.154,95.886
-3.335,-1.585,-1.231,-5.188,166.443,235.596
-1.441,-0.766,0.439,-0.305,130.249,208.679
-1.732,-0.538,0.625,72.205,110.229,241.943
-2.848,-0.714,-0.257,-56.946,153.381,245.483
-2.857,-0.779,-0.594,-146.179,153.137,249.512
-2.345,0.13,-0.733,-79.285,109.497,226.257
-1.733,0.557,-0.735,-88.867,82.703,201.355
-1.166,0.7,-0.704,-87.891,48.828,149.536
-0.376,1.143,-0.612,-69.885,-15.198,29.358
-0.223,1.14,-0.554,-59.875,-28.503,-29.602
0.277,0.515,-0.153,83.923,-10.254,-62.622
0.124,0.082,0.628,-59.082,17.395,-50.903
0.092,-0.62,0.282,-119.507,15.32,-27.71
0.517,2.842,-3.223,-417.053,185.547,42.48
2.173,3.402,-3.491,-118.286,-93.628,-41.26
-0.646,-0.482,-1.648,129.578,-39.856,-99.426
-2.239,-0.786,-0.634,229.675,-109.314,-74.707
-3.248,-1.04,-0.002,-19.653,-45.715,-47.546
-0.959,0.03,-0.798,-19.47,-93.75,-113.586
-1.611,0.01,-0.687,-15.808,-154.846,-159.912
-1.846,-0.679,0.184,-36.865,-121.948,-179.871
-2.04,-1.166,0.765,-18.066,-109.985,-161.011
-1.552,-0.904,0.983,-25.696,-62.744,-122.62
-0.99,-0.81,1.117,27.649,-52.795,-91.98
-0.766,-0.815,1.264,122.559,-22.034,-51.88
-0.353,-0.745,1.141,118.958,30.518,-1.77
0.048,-0.717,0.425,93.628,27.893,13.794
0.132,-0.841,0.384,109.375,32.227,50.293
-0.271,-0.882,-0.061,84.106,100.403,56.641
-2.167,-2.05,-0.339,13.123,140.259,176.88
-1.269,-0.479,-0.489,-252.197,141.296,141.479
-0.974,-0.59,0.035,-117.371,115.662,131.226
-3.093,-0.094,-0.47,-167.358,133.301,197.388
-2.288,-0.042,-0.539,-127.136,91.797,177.49
-0.779,0.676,-0.42,18.799,39.49,153.992
-0.739,0.507,-0.486,40.283,8.301,122.009
-0.757,0.561,-0.236,-14.404,-40.283,53.406
-0.274,0.632,-0.304,-70.496,-48.401,-18.066
-0.081,0.674,-0.287,-61.707,-43.579,-30.09
0.157,0.441,0.172,-84.473,0.671,-75.012
0.048,0.087,0.073,-100.891,-20.691,-94.849
-0.033,-0.283,0.076,-99.67,-22.339,-95.337
-1.082,-1.614,-0.252,111.389,-94.788,49.072
-1.447,-1.291,-0.079,182.678,-74.341,59.937
-0.614,2.517,-1.748,-286.438,153.809,214.661
-1.081,4.0,0.441,-276.428,103.455,145.996
-1.953,-0.256,-0.023,-58.411,27.161,2.991
-1.17,-0.571,0.021,5.92,-66.772,-67.139
-0.763,-0.517,-0.016,-32.166,-43.945,-66.65
-0.606,-0.547,0.014,2.258,-35.461,-58.777
-0.809,-0.156,0.167,37.415,-37.354,-34.79
-0.913,-0.304,0.164,33.264,-32.532,-48.218
-0.606,-0.335,0.315,33.569,-23.315,-44.983
-0.582,-0.51,0.5,41.26,-8.362,-45.227
-1.161,-0.516,0.249,72.021,27.161,-14.709
-2.051,-0.675,-0.074,60.913,36.438,-4.883
-1.07,-0.569,0.24,52.673,57.556,16.235
-0.993,-0.293,-0.027,23.804,62.622,32.288
-0.979,-0.182,-0.131,3.784,56.641,32.227
-1.268,0.153,-0.615,-14.893,15.137,5.859
-1.088,0.089,-0.57,24.475,1.831,0.122
-0.993,0.027,-0.479,45.959,-3.662,3.784
-0.99,-0.041,0.072,1.892,-9.155,3.235
-0.984,0.012,0.084,-72.205,-7.08,-17.334
-0.941,0.017,0.016,-100.891,-13.184,-39.612
-0.866,0.191,-0.192,-97.961,-34.241,-49.683
-0.881,0.285,-0.241,-88.745,-34.485,-53.833
-0.865,0.342,-0.212,-54.382,-33.875,-61.096
-0.847,0.163,-0.119,21.606,-40.1,-53.528
-0.914,-0.011,-0.04,33.813,-38.94,-46.875
-1.083,-0.311,0.294,38.147,-37.659,-32.043
-1.171,-0.685,0.18,44.617,-29.175,-17.639
-1.076,-0.448,-0.136,26.55,-29.724,-3.174
-0.952,0.341,-0.322,20.813,-36.865,-17.029
-0.983,0.123,-0.073,51.88,-41.26,-37.964
-1.069,-1.1,0.418,69.153,-13.123,-16.418
-0.878,-0.653,0.241,18.25,-2.258,4.272
-0.944,-0.039,-0.234,-63.354,-24.78,-12.268
-1.009,0.091,-0.256,-61.401,-42.236,-26.184
-1.009,-0.283,-0.142,-16.174,-19.104,-20.935
-1.011,-0.233,-0.174,-24.17,-16.968,-17.944
-1.001,-0.187,-0.173,-27.588,-18.433,-18.25
-0.994,0.021,-0.122,-31.311,-21.667,-18.127
-0.996,0.118,-0.109,-7.69,-21.484,-21.179

-0.855,-0.597,0.3,34.058,2.075,4.211
-0.848,-0.68,0.37,39.246,9.399,11.536
-0.859,-0.699,0.423,42.969,18.066,20.508
-0.876,-0.689,0.431,46.326,27.344,29.236
-0.837,-0.539,0.343,47.729,44.128,45.776
-0.854,-0.403,0.284,46.082,49.316,52.429
-1.021,-0.188,0.236,40.894,64.575,57.19
-1.294,-0.174,0.272,41.626,72.876,56.458
-1.432,-0.764,0.391,65.491,98.206,75.256
-1.433,-0.899,0.595,64.514,100.098,139.099
-1.558,-0.272,0.578,43.274,95.947,164.551
-1.305,0.059,-0.039,26.55,105.042,134.033
-1.265,-0.479,0.268,65.491,120.361,125.671
-1.415,-0.54,0.399,88.44,124.023,144.836
-1.261,-0.584,0.315,55.786,118.896,141.174
-0.983,-0.471,0.225,-21.667,102.966,112.183
-0.883,-0.41,0.165,-37.659,96.252,103.149
-0.541,0.006,-0.157,-53.284,35.278,34.79
-0.372,-0.007,-0.167,-0.671,9.033,-21.851
-0.375,0.057,-0.364,42.847,-5.554,-36.987
-0.281,0.35,-0.357,54.26,-24.414,-71.96
-0.143,0.645,-0.676,42.053,-53.528,-96.68
0.023,-0.566,0.479,94.666,-100.525,-132.08
-3.071,-1.175,2.314,236.633,-106.506,-37.354
-0.002,0.242,-0.615,-139.404,-62.012,-90.271
-0.234,0.463,0.16,33.569,-107.849,-97.412
-0.976,-0.19,-0.063,31.189,-40.771,-102.783
-1.822,-0.254,-0.034,82.458,-65.063,-84.656
-0.988,0.164,-0.243,47.607,-50.598,-118.225
-1.652,0.04,-0.699,59.937,-114.868,-170.898
-2.02,-0.518,-0.906,31.677,-119.995,-220.215
-2.039,-1.889,-0.492,-42.908,-143.066,-219.177
-1.947,-2.629,0.999,-58.533,-143.921,-206.97
-1.555,-2.289,1.617,-96.252,-99.182,-197.021
-1.123,-1.867,1.616,-144.653,-37.598,-41.199
0.056,-0.258,0.337,18.433,50.476,19.287
-3.448,-2.027,0.077,17.578,179.443,184.814
-2.515,-0.031,-0.124,34.18,176.331,205.811
-2.769,-0.791,-0.394,-28.625,190.613,270.203
-2.869,-0.652,-0.543,-84.778,169.373,285.4
-2.1,0.512,-0.604,-76.843,114.136,250.122
-1.46,0.773,-0.65,-36.621,81.482,195.374
-0.696,1.057,-0.585,-17.822,45.654,139.526
-0.048,0.27,0.209,-25.879,-11.78,-135.315
-0.108,-0.047,0.276,-54.443,-14.709,-123.718
0.04,-1.12,-0.4,-27.527,-31.982,-78.003
-0.251,0.2,-0.403,7.202,-116.577,9.216
-0.277,0.915,1.452,23.865,-104.98,-8.179
0.37,1.774,-2.501,-458.496,146.484,-20.264
2.01,3.865,-3.87,-109.436,-87.83,-25.452
-0.559,-0.238,-1.623,173.096,-75.073,-94.788
-3.973,-1.337,-0.571,177.185,-96.436,-113.22
-0.844,-0.099,-0.518,-21.667,-68.787,-135.864
-1.878,-1.607,1.003,-6.287,-156.067,-149.475
-0.837,-1.288,1.866,49.744,-37.048,-69.031
-0.268,-0.32,0.065,104.126,29.48,8.789
-0.109,-1.139,0.467,126.038,-5.737,43.945
-0.277,-1.025,0.772,90.149,142.578,76.721
-2.754,0.288,-0.385,-174.438,140.869,223.938
-1.415,1.29,-0.812,4.761,88.684,185.12
-0.342,1.412,-0.722,-8.057,50.537,133.423
-0.222,1.146,-0.877,9.216,4.395,75.134
-0.593,0.272,0.109,109.802,-59.021,-56.213
-0.62,0.095,1.04,-73.242,15.808,-121.521
-0.102,-1.242,-0.578,-129.944,-69.153,-77.82
-0.112,-1.839,-0.889,-140.442,-74.707,0.793
-0.607,-0.578,-0.956,123.474,-68.176,46.448
-3.988,-4.0,4.0,30.64,1.099,156.311
-0.901,-0.288,-0.956,149.048,-47.668,-68.97
-1.888,-1.751,-0.753,233.032,-113.953,-17.944
-0.788,-0.351,-0.165,-14.282,7.507,10.132
-1.366,0.037,-0.374,-87.524,-84.656,-90.271
-0.922,-0.777,0.578,-0.977,-65.369,-69.336
-0.735,-0.848,0.52,66.284,75.378,33.081
-1.586,-0.15,-0.649,14.16,58.716,97.717
-1.233,0.476,-0.073,23.01,-19.958,47.241
-1.011,0.444,-0.002,-25.696,-5.432,28.992
-0.85,0.532,-0.231,-78.796,-43.152,-17.822
-0.914,0.294,0.076,-81.665,-64.819,-88.684
-0.86,0.165,-0.14,-84.595,-74.463,-103.821
-0.609,0.173,-0.188,-107.178,-79.041,-89.6
-0.873,-0.184,0.094,-44.8,-41.931,-60.059
-1.519,-0.119,-0.286,30.334,-73.059,-21.729
-0.997,0.109,0.331,130.493,-81.97,-80.017
-0.898,0.078,-0.242,-73.975,-59.875,-41.443
-1.014,-0.107,-0.085,-2.502,-21.179,-21.118
-0.989,-0.056,-0.172,-18.616,-0.977,0.488
-0.942,-0.001,-0.265,1.343,3.418,-0.183
-0.965,-0.07,-0.217,-12.329,-2.869,-0.549
-0.948,-0.039,-0.25,-7.446,6.714,13.672
-0.95,-0.003,-0.212,-6.165,-2.747,-4.089
-0.967,-0.058,-0.185,-3.418,1.16,1.648
-0.945,-0.051,-0.241,-1.465,-0.854,0.61
-0.961,-0.064,-0.201,-3.235,-0.366,0.244
-0.963,-0.087,-0.212,-0.549,-1.404,0.549
-0.957,-0.081,-0.221,2.441,-2.563,-0.793
-0.954,-0.057,-0.249,-2.136,-3.296,-1.282
-0.948,-0.078,-0.27,1.465,-1.953,-1.099
-0.954,-0.059,-0.241,-0.244,-0.916,-0.671
-0.958,-0.077,-0.259,-0.732,-0.244,0.671
-0.953,-0.074,-0.26,0.671,0.0,-0.061
-0.953,-0.061,-0.262,0.305,0.244,-0.244
-0.953,-0.06,-0.26,-3.296,2.258,3.54
-0.951,-0.046,-0.24,8.057,4.333,4.517
-0.954,-0.075,-0.24,0.977,3.052,0.122
-0.96,-0.088,-0.222,1.526,2.014,0.305
-0.965,-0.09,-0.222,2.441,2.441,0.244
-0.962,-0.077,-0.218,1.282,0.366,-0.977
-0.966,-0.069,-0.218,0.427,1.099,0.183
-0.964,-0.079,-0.206,1.526,1.648,0.977
-0.965,-0.083,-0.204,-0.977,2.258,0.732
-0.964,-0.076,-0.207,-0.305,2.563,1.648
-0.966,-0.082,-0.198,0.671,1.221,0.671
-0.962,-0.092,-0.199,-0.793,1.282,0.244
-0.967,-0.09,-0.198,0.0,1.038,0.305
-0.963,-0.084,-0.199,0.366,-0.61,-0.305
-0.966,-0.083,-0.203,0.122,0.061,0.183
-0.966,-0.085,-0.196,-0.122,0.183,-0.183
-0.967,-0.093,-0.204,-1.099,0.0,-0.244

-0.919,-0.44,0.277,31.982,6.348,-3.601
-0.911,-0.445,0.337,36.316,15.32,0.427
-0.888,-0.406,0.379,37.476,26.062,5.005
-0.846,-0.38,0.397,41.443,33.997,9.399
-0.841,-0.417,0.455,65.857,47.424,23.376
-0.882,-0.459,0.396,68.726,55.786,27.283
-1.042,-0.516,0.203,44.922,87.524,41.809
-1.31,-0.677,0.263,34.546,95.642,68.237
-1.357,-0.541,0.509,64.819,87.524,124.023
-1.293,-0.136,0.135,31.006,75.684,134.338
-1.227,-0.344,0.459,62.622,92.957,96.68
-1.192,-0.5,0.379,47.058,90.637,98.694
-1.093,-0.599,0.257,-6.897,86.67,96.313
-0.932,-0.502,0.114,-37.048,76.294,86.67
-0.634,0.035,-0.105,-37.842,34.607,44.189
-0.341,-0.079,-0.277,32.715,16.968,8.545
-0.213,-0.203,-0.382,78.064,-14.038,5.798
-0.037,0.421,-0.434,47.607,-42.175,-50.964
0.049,0.469,-0.734,19.531,-103.455,-120.544
-3.241,-3.01,1.773,174.011,-102.661,-65.063
-0.011,0.365,-0.334,-152.649,-28.503,-102.417
-0.282,0.576,0.247,20.447,-111.633,-107.666
-1.978,-0.11,-0.169,66.772,-69.275,-112.061
-0.95,0.116,-0.192,43.152,-63.477,-128.662
-1.617,0.256,-0.728,32.654,-83.252,-153.748
-2.0,-1.363,-0.826,17.639,-148.499,-229.919
-2.459,-2.917,0.344,22.034,-173.706,-206.909
-1.751,-1.848,1.163,-143.311,-74.402,-158.508
-0.709,-0.632,1.91,-136.658,-30.945,-35.828
0.064,-0.725,0.365,22.217,63.171,1.648
-0.508,-0.409,1.349,65.247,86.609,104.065
-2.095,-0.986,0.109,78.247,148.804,167.603
-2.901,-1.551,-0.554,-24.719,170.41,177.246
-2.392,-0.519,-0.193,27.832,210.876,184.326
-2.99,-0.461,-0.445,-100.464,226.624,267.212
-2.814,0.452,-0.732,-20.386,118.652,265.259
-1.811,0.855,-0.747,-65.43,106.323,246.033
-0.537,1.517,-0.749,-60.364,52.979,142.456
0.029,1.565,-0.792,-10.803,-8.85,14.587
-0.027,0.52,0.283,70.801,-6.775,-97.046
-0.196,0.366,0.644,-35.217,-4.089,-124.207
0.193,-2.552,-1.915,-65.125,-87.708,27.161
-0.358,0.455,1.396,24.658,-135.071,41.138
-3.582,-1.267,2.471,-203.796,99.365,168.518
2.497,2.394,-4.0,-262.634,-7.202,-95.52
-0.572,-0.511,-1.136,234.009,-140.137,-76.233
-3.906,-1.326,0.498,110.474,-82.947,-41.138
-0.951,0.07,-0.653,-9.155,-117.004,-116.699
-2.645,-0.793,0.098,-18.25,-150.818,-166.321
-1.478,-1.982,1.9,40.527,-51.086,-112.0
-0.555,-0.475,1.684,71.228,49.744,2.502
-0.356,-0.009,-0.03,67.749,91.37,21.057
-0.285,-1.043,0.526,122.192,69.458,75.256
-0.433,-1.027,0.836,120.789,105.042,87.341
-3.46,-0.992,-0.095,-168.091,90.576,240.173
-1.73,0.068,-0.025,-53.528,162.537,183.655
-2.155,0.165,-0.555,-68.054,136.902,189.27
-1.301,0.702,-0.625,10.803,66.345,148.926
-0.408,0.911,-0.547,34.119,4.211,92.407
-0.354,0.768,-0.502,18.005,-70.129,3.784
-0.411,0.214,0.579,-74.097,-68.726,-106.079
-0.419,-0.111,0.09,-153.748,-81.299,-130.066
-0.278,-1.138,0.148,-143.555,-74.341,-66.956
-4.0,-4.0,3.601,115.784,24.536,86.548
-1.007,1.459,-0.465,-217.041,152.649,144.348
0.933,-0.06,-1.279,-84.534,-92.468,-95.337
-1.556,-1.461,-0.958,278.809,-93.323,-88.074
-0.612,-0.372,-0.11,-64.453,11.963,10.376
-1.129,0.356,-0.416,-53.589,-95.947,-59.204
-1.046,-0.068,0.009,4.578,-63.293,-67.81
-0.88,-0.377,-0.073,-0.488,-50.537,-62.073
-0.782,-0.083,-0.199,27.039,-57.129,-47.18
-0.851,-0.338,-0.093,22.888,-65.918,-69.641
-0.99,-0.339,0.077,-5.066,-65.125,-49.683
-1.125,-0.557,-0.091,20.447,-54.565,-48.95
-0.981,-0.132,-0.135,-20.935,-41.809,-40.588
-0.931,-0.066,-0.197,-8.545,-49.255,-36.56
-1.019,-0.203,-0.095,-0.793,-39.246,-39.978
-0.948,-0.141,-0.095,7.874,-26.306,-25.757
-0.979,-0.19,-0.103,13.367,-9.949,-12.695
-0.974,-0.076,-0.321,-16.479,-15.808,-16.663
-0.956,-0.017,-0.292,-21.606,-11.414,-18.433
-0.964,0.063,-0.249,-12.085,-7.812,-16.785
-0.962,0.023,-0.196,3.845,-8.118,-13.489
-0.995,-0.088,-0.157,15.015,-10.559,-9.766
-0.941,-0.207,-0.195,0.061,-9.155,-12.573
-0.93,-0.163,-0.221,-16.968,-10.376,-12.024
-0.965,0.001,-0.302,-24.841,-13.855,-9.705
-0.949,0.118,-0.329,-18.005,-14.038,-10.376
-0.953,0.015,-0.271,1.831,-14.099,-11.841
-0.958,-0.046,-0.255,4.028,-13.062,-10.742
-0.975,-0.094,-0.263,1.526,-8.606,-8.545
-0.924,-0.083,-0.266,-8.606,-1.831,-4.883
-0.953,-0.027,-0.257,-10.315,-2.136,-1.77
-0.977,0.053,-0.305,-6.958,-0.916,-0.183
-0.937,-0.012,-0.311,3.357,0.183,0.244
-0.941,-0.035,-0.326,1.709,0.122,1.221
-0.935,-0.032,-0.288,2.197,0.671,1.16
-0.938,-0.03,-0.283,1.343,0.366,0.671
-0.942,-0.032,-0.3,-2.625,0.61,1.404
-0.939,-0.044,-0.313,-2.686,1.77,1.77
-0.944,-0.019,-0.309,-4.883,1.77,1.526
-0.944,-0.023,-0.312,-4.822,2.136,1.221
-0.962,-0.016,-0.273,0.0,0.854,1.648
-0.966,-0.02,-0.275,1.892,1.404,1.526
-0.949,-0.031,-0.273,6.409,1.892,3.662
-0.943,-0.034,-0.275,6.165,2.136,3.601
-0.946,-0.062,-0.285,3.479,0.916,2.991
-0.954,-0.05,-0.28,2.563,0.977,2.747
-0.95,-0.063,-0.284,2.38,1.465,2.258
-0.959,-0.048,-0.256,-1.16,0.854,1.282
-0.954,-0.037,-0.253,-1.709,2.38,0.305
-0.944,-0.028,-0.274,-0.244,2.441,-0.122
-0.947,-0.034,-0.301,2.014,1.099,0.366
-0.949,-0.05,-0.312,2.93,0.366,0.793
-0.953,-0.055,-0.274,3.113,-0.549,-1.221
-0.962,-0.047,-0.269,0.366,-0.61,-1.404
-0.963,-0.05,-0.272,-0.427,-0.671,-1.343
-0.949,-0.049,-0.266,1.038,-0.977,-0.977

-0.917,-0.563,0.321,33.325,5.676,-0.916
-0.917,-0.64,0.368,44.067,11.047,6.592
-0.895,-0.672,0.411,53.711,15.503,16.113
-0.859,-0.569,0.35,72.449,31.189,42.847
-0.857,-0.526,0.29,74.341,38.574,48.34
-1.13,-0.332,0.211,48.889,67.383,57.983
-1.389,-0.309,0.23,34.79,77.148,64.453
-1.296,-0.259,0.271,80.566,95.581,88.806
-1.32,-0.41,0.069,35.583,65.308,109.009
-1.31,-0.321,0.198,5.432,78.552,108.093
-1.188,-0.324,0.328,19.714,90.332,97.473
-1.04,-0.39,0.28,14.282,90.637,98.999
-1.021,-0.503,0.234,-1.709,91.37,100.525
-0.977,-0.282,0.131,-20.508,85.205,95.642
-0.872,-0.151,-0.035,-17.7,73.853,83.801
-0.573,-0.153,-0.044,19.47,33.386,48.584
-0.421,-0.175,-0.135,31.982,0.549,8.301
-0.46,0.117,-0.258,40.588,-14.954,-59.204
-0.391,0.891,-0.668,24.536,-46.021,-93.384
-0.72,-2.826,-0.759,201.782,-97.168,-126.343
-3.763,-1.9,0.069,45.288,-31.86,10.315
0.083,0.165,-0.76,-139.587,-23.315,-82.031
-2.033,-0.447,-0.316,67.993,-44.495,-99.365
-1.175,-0.319,-0.329,35.034,-54.871,-136.536
-1.663,-0.243,-0.881,-17.029,-98.572,-151.733
-1.657,-0.879,-0.734,-4.883,-153.015,-198.73
-2.297,-2.062,1.322,-23.132,-119.629,-191.223
-1.466,-1.77,1.729,-76.05,-74.707,-128.601
-0.66,-0.263,1.308,-57.251,17.7,-11.047
0.096,-0.685,0.537,10.376,57.922,56.519
-1.543,-0.591,-0.094,103.943,150.269,162.659
-1.829,-0.783,0.067,-39.856,173.401,196.655
-1.911,-0.64,0.51,44.922,148.01,206.604
-1.777,0.71,-0.553,-55.664,89.478,215.942
-0.676,1.314,-0.414,-29.48,45.044,123.962
-0.069,1.489,-0.926,7.263,-3.052,-1.282
-0.134,0.637,-0.419,100.891,-59.814,-103.333
-0.049,-0.43,-0.85,-89.6,-124.817,-8.85
-0.55,1.067,2.393,130.371,-44.067,-98.267
0.949,2.827,-0.098,20.508,-129.395,-51.88
-2.76,0.17,-1.13,183.35,-131.104,-111.877
-1.793,-0.674,-0.696,-31.982,-147.034,-208.74
-1.809,-1.208,1.853,-4.456,-182.922,-133.85
-0.464,-0.087,1.467,127.441,47.791,-34.424
-0.604,-1.029,0.708,102.356,146.851,117.859
-4.0,-2.166,-1.175,-52.673,159.912,192.139
-1.468,-0.9,-0.594,-164.673,164.49,155.029
-2.836,0.145,-0.391,-115.479,162.17,263.184
-1.953,0.878,-0.819,-34.912,98.267,183.472
-0.024,1.655,-1.305,47.18,-21.118,29.602
-0.233,0.499,-0.472,212.341,-82.581,-73.12
-0.35,-2.036,-0.644,-104.614,-126.953,17.334
0.085,0.12,-1.18,12.024,-77.515,51.331
-2.081,0.618,3.98,140.198,13.245,283.081
2.657,1.868,-1.561,-118.835,-39.612,-87.036
-0.24,-0.948,-1.466,109.436,-8.484,-82.703
-0.593,-0.133,-0.268,7.08,-63.171,-66.406
-1.212,-0.656,0.294,-31.921,-93.323,-126.587
-1.021,-1.163,-0.135,62.5,79.895,4.456
-1.945,-0.866,0.152,-141.541,52.185,86.182
-1.59,-0.357,-0.148,1.892,95.032,90.393
-2.204,0.131,-0.657,-21.545,51.697,140.198
-1.655,0.606,-0.425,24.109,12.329,107.544
-0.799,0.788,-0.542,-33.386,-1.404,71.411
-0.95,0.388,-0.412,27.954,-62.439,-33.142
-0.573,0.144,0.078,-116.638,-29.114,-49.988
-0.404,0.029,-0.035,-149.109,-45.776,-49.194
-1.267,0.093,-0.027,-98.328,-88.013,-73.608
-1.132,-0.055,0.237,-45.288,-76.721,-47.607
-0.989,0.698,-0.781,-31.494,-65.369,-63.416
-0.926,-0.432,-0.185,125.183,-104.919,-78.857
-1.171,-0.699,0.711,24.78,-34.241,-1.526
-0.79,-0.341,-0.183,3.357,-37.537,-43.579
-0.941,-0.262,-0.245,-23.132,-37.17,-31.494
-1.043,-0.134,0.007,-38.452,-33.508,-34.363
-1.054,-0.366,0.03,-21.179,-20.142,-8.24
-0.973,-0.096,-0.258,-18.921,-6.531,1.343
-0.946,-0.09,-0.334,-15.93,-5.005,-1.221
-0.907,0.079,-0.364,-1.404,-8.057,-1.526
-0.902,0.078,-0.364,1.648,-8.179,-3.296
-0.924,-0.077,-0.32,-8.728,-5.31,-9.399
-0.993,-0.161,-0.2,-14.465,-7.935,-8.667
-0.987,-0.142,-0.219,-2.258,-4.089,-1.709
-0.94,-0.01,-0.297,3.174,-2.991,3.296
-0.946,-0.033,-0.315,7.385,-3.113,-0.916
-0.959,-0.148,-0.288,4.272,-3.723,1.648
-0.954,-0.079,-0.265,0.183,-4.456,2.136
-0.954,-0.047,-0.205,10.498,-2.075,-0.549
-0.935,-0.068,-0.309,-7.385,1.587,-0.366
-0.938,-0.067,-0.317,-6.775,-2.625,0.427
-0.955,-0.079,-0.287,-4.944,-0.977,-0.488
-0.943,-0.061,-0.276,2.258,-0.122,2.686
-0.943,-0.073,-0.308,-4.272,1.892,1.099
-0.933,-0.111,-0.326,-11.414,2.991,-1.343
-0.954,-0.07,-0.302,-6.836,3.418,1.892
-0.955,-0.06,-0.284,-4.333,3.479,1.709
-0.946,-0.125,-0.262,8.606,4.395,2.991
-0.957,-0.125,-0.263,9.094,2.258,3.723
-0.95,-0.136,-0.27,6.042,0.854,2.747
-0.946,-0.113,-0.279,2.014,0.0,2.014
-0.95,-0.091,-0.274,0.916,-0.061,2.014
-0.938,-0.093,-0.273,2.014,0.305,2.686
-0.938,-0.069,-0.289,2.686,-0.061,2.075
-0.944,-0.083,-0.298,4.395,0.061,1.038
-0.93,-0.081,-0.282,4.333,1.404,1.038
-0.958,-0.1,-0.299,4.272,2.014,0.732
-0.959,-0.115,-0.273,2.93,1.465,2.808
-0.945,-0.072,-0.272,3.113,2.319,0.61
-0.945,-0.097,-0.279,6.47,1.526,0.305
-0.957,-0.108,-0.273,8.972,1.343,1.343
-0.96,-0.114,-0.246,8.484,1.587,1.526
-0.96,-0.128,-0.254,5.798,1.648,0.916
-0.963,-0.122,-0.248,4.578,1.038,0.854
-0.949,-0.11,-0.253,0.305,0.122,-0.549
-0.949,-0.105,-0.273,0.0,0.916,-0.977
-0.951,-0.09,-0.26,-0.732,0.671,-1.343
-0.942,-0.089,-0.285,0.549,0.183,-1.404
-0.945,-0.079,-0.262,0.427,0.549,-2.625
-0.956,-0.086,-0.275,1.709,1.099,-2.625

-0.866,-0.556,0.247,24.231,3.357,1.831
-0.851,-0.563,0.262,20.325,8.057,7.568
-0.905,-0.312,0.086,11.841,42.236,33.325
-1.161,-0.624,0.069,34.18,65.43,71.777
-1.318,0.04,0.427,-1.16,65.063,106.934
-1.187,-0.237,0.497,55.908,93.811,88.745
-1.175,-0.643,0.38,2.014,111.633,107.727
-0.713,-0.092,0.053,-3.296,81.97,95.581
-0.47,-0.196,-0.184,58.167,15.625,28.198
0.291,0.807,-0.974,27.161,-116.577,-143.738
0.002,0.819,0.113,-107.239,-80.933,-81.36
-1.774,-0.022,0.009,-33.875,-25.879,-149.17
-1.999,-0.54,-1.059,0.244,-161.072,-216.37
-1.693,-1.58,1.372,-84.534,-77.332,-153.503
-0.356,-0.199,1.159,-9.399,25.146,-17.212
-2.678,-0.98,0.302,85.449,177.368,162.537
-2.339,-0.08,0.105,43.518,188.904,236.328
-2.285,0.281,-0.525,-6.592,122.437,260.925
-0.326,1.338,-0.811,-47.546,5.92,82.092
-0.116,0.502,0.188,166.443,-20.935,-108.521
-0.211,0.154,-0.236,13.489,-143.494,31.799
0.9,3.58,-2.259,-373.474,108.643,12.024
-2.724,-1.146,-0.863,217.346,-142.212,-109.863
-1.692,-0.289,-0.468,-87.891,-146.667,-186.768
-1.494,-1.65,1.52,-0.183,-106.934,-113.22
-0.458,-0.116,0.76,127.258,77.942,0.549
-2.033,-1.804,-0.339,37.537,174.133,128.662
-2.457,-0.02,-0.753,-146.484,178.284,206.909
-0.738,1.111,-0.891,30.884,65.796,103.577
-0.282,0.054,0.974,66.528,-66.223,-107.422
-0.202,-1.769,0.172,-192.017,-85.388,-71.228
-1.054,3.915,4.0,18.433,72.815,-146.118
0.481,0.029,0.157,100.586,-144.165,-58.594
-0.284,-0.269,0.122,-6.897,63.416,-31.372
-0.892,-0.425,0.635,-55.054,-44.495,-88.013
-0.577,0.102,0.161,20.996,-16.968,-28.259
-0.821,-0.891,1.169,148.01,69.336,11.108
-1.209,-0.679,-0.332,-128.662,43.457,48.767
-1.596,0.341,-0.53,64.27,30.884,85.754
-0.861,0.382,-0.289,-24.231,-42.175,-13.245
-0.457,-0.034,-0.01,-29.846,-31.494,-68.298
-1.035,0.265,-0.395,-166.26,-100.647,-52.673
-1.309,-0.799,0.08,17.517,-55.237,-52.917
-0.668,-0.048,0.015,-14.832,-11.353,-29.48
-0.991,-0.293,-0.124,84.961,-62.866,-33.02
-0.898,-0.139,-0.142,-8.24,-60.913,-30.334
-1.008,-0.052,-0.046,0.061,-28.564,-40.833
-1.0,-0.354,-0.113,-16.052,-13.489,-1.77
-0.979,-0.076,-0.224,-9.583,-3.54,-1.831
-0.951,-0.017,-0.26,-14.648,-3.906,-1.343
-0.958,-0.089,-0.229,-11.108,-5.92,-5.737
-0.961,-0.018,-0.241,-0.671,-3.784,-1.465
-0.955,-0.044,-0.276,4.639,-3.418,-1.587
-0.971,-0.104,-0.211,10.193,-3.357,-1.343
-0.963,-0.108,-0.22,0.916,-4.517,-0.488
-0.957,-0.062,-0.266,-4.517,-3.906,-0.732
-0.953,-0.055,-0.262,0.732,-1.953,-0.61
-0.958,-0.073,-0.254,-0.427,-1.16,-0.671
-0.954,-0.059,-0.255,-0.061,0.122,-0.854
-0.953,-0.063,-0.252,-0.549,0.977,-0.732
-0.959,-0.069,-0.239,-1.587,1.038,-0.244
-0.957,-0.066,-0.246,-2.319,0.427,0.0
-0.95,-0.053,-0.262,-1.648,-0.549,0.244
-0.953,-0.059,-0.259,-1.709,-1.282,-0.61
-0.953,-0.046,-0.261,-2.38,-1.587,-1.221
-0.957,-0.06,-0.243,0.671,-0.854,-1.282
-0.957,-0.057,-0.254,-1.892,-0.977,-1.16
-0.954,-0.052,-0.253,-1.953,-0.366,-0.916
-0.953,-0.057,-0.263,0.671,0.183,-1.282
-0.954,-0.057,-0.264,-0.793,-0.183,-1.282
-0.958,-0.058,-0.25,-2.808,0.061,-1.343
-0.954,-0.053,-0.26,-2.686,-0.427,-1.038
-0.956,-0.04,-0.257,-1.343,0.244,-0.366
-0.95,-0.04,-0.257,1.709,0.183,-0.366
-0.955,-0.054,-0.251,1.648,-0.671,-0.305
-0.958,-0.053,-0.25,-0.61,-1.221,-0.427
-0.95,-0.043,-0.264,-1.526,-1.099,-0.793
-0.952,-0.034,-0.271,-1.465,-1.221,-1.099
-0.952,-0.0,-0.278,0.732,-1.526,-1.282
-0.949,-0.046,-0.285,4.15,-2.319,-1.709
-0.95,-0.044,-0.277,4.7,-2.625,-1.404
-0.948,-0.045,-0.277,4.822,-1.16,-0.122
-0.95,-0.043,-0.28,2.258,-0.549,0.244
-0.952,-0.035,-0.28,1.221,0.305,-0.122
-0.953,-0.043,-0.272,0.244,0.854,-0.122
-0.949,-0.044,-0.281,-0.488,0.671,-0.305
-0.949,-0.035,-0.272,-1.526,0.549,-0.244
-0.95,-0.031,-0.285,-1.282,0.549,0.122
-0.945,-0.03,-0.291,-1.038,-0.244,-1.16
-0.948,-0.025,-0.285,0.671,0.061,-0.854
-0.95,-0.034,-0.282,2.991,-0.183,-0.916
-0.954,-0.041,-0.284,3.418,0.488,-0.488
-0.953,-0.034,-0.268,-15.442,-0.854,-0.122
-0.94,-0.007,-0.291,-1.953,-0.366,-0.732
-0.942,-0.012,-0.294,0.671,0.427,-0.427
-0.942,-0.014,-0.285,0.916,-0.122,-0.977
-0.948,-0.023,-0.287,1.282,0.244,-0.61
-0.95,-0.022,-0.283,2.136,0.0,-0.305
-0.945,-0.033,-0.279,3.052,-0.549,0.0
-0.948,-0.033,-0.282,0.488,-0.366,0.183
-0.946,-0.014,-0.291,-0.061,-0.427,-0.244
-0.944,-0.019,-0.282,1.465,-0.061,0.061
-0.948,-0.021,-0.286,-0.183,0.183,-0.366
-0.948,-0.025,-0.28,-1.404,0.793,-0.122
-0.945,-0.018,-0.284,-1.953,0.488,-0.305
-0.942,-0.016,-0.293,-2.075,0.244,-0.427
-0.941,-0.01,-0.291,0.0,0.244,-0.183
-0.945,-0.015,-0.279,0.977,0.549,0.366
-0.946,-0.029,-0.285,0.671,0.671,0.427
-0.946,-0.021,-0.282,0.732,0.549,0.122
-0.946,-0.028,-0.282,0.732,1.099,0.671
-0.946,-0.021,-0.283,-0.488,0.366,0.061
-0.949,-0.028,-0.284,-0.854,0.488,0.0
-0.95,-0.026,-0.289,-0.549,0.427,0.061
-0.943,-0.024,-0.289,0.183,0.244,0.122
-0.943,-0.01,-0.293,0.854,0.305,0.244
-0.943,-0.024,-0.285,2.625,0.305,0.183
-0.953,-0.024,-0.283,1.831,-0.061,0.366
-0.945,-0.021,-0.286,1.831,-0.061,0.427

-0.936,-0.479,0.231,47.18,5.188,0.183
-0.912,-0.559,0.299,53.772,11.23,6.042
-0.771,-0.616,0.396,62.439,41.931,46.204
-0.974,-0.352,0.267,58.655,73.303,80.078
-1.398,-0.616,0.469,68.115,114.563,111.145
-1.463,0.148,0.038,7.202,79.651,138.0
-1.008,-0.486,0.198,22.583,117.249,101.196
-0.603,-0.248,0.062,-34.912,62.866,57.739
-0.45,-0.343,0.092,31.555,8.423,4.517
0.085,0.081,-0.153,36.377,-124.695,-126.831
0.383,0.762,-0.979,-67.078,-103.821,-79.773
-2.016,-0.718,0.216,116.455,-77.881,-76.843
-1.309,0.029,-0.816,11.719,-129.517,-140.625
-1.804,-1.205,-0.373,-18.25,-175.598,-208.374
-0.427,-0.246,0.867,24.78,30.273,-3.052
-2.273,-1.53,-0.339,-19.287,197.571,174.622
-2.635,-0.877,-0.586,-75.317,186.462,264.099
-0.893,0.654,-0.693,-55.237,69.824,171.814
-0.119,1.312,-0.873,-57.373,-18.127,-15.503
-0.139,0.022,0.601,-26.245,7.263,-70.496
-3.999,-2.73,0.807,-192.81,130.31,42.48
-0.804,-0.324,-1.414,124.451,-72.693,-57.556
-0.598,0.132,-0.505,-38.452,-31.311,-91.858
-0.933,-1.428,1.594,-13.245,-5.554,-30.334
-0.209,-0.74,0.681,37.598,76.355,61.279
-1.406,-0.696,0.081,-93.506,110.229,191.345
-1.849,0.321,-0.452,-71.96,47.974,117.615
-0.418,0.103,0.776,86.426,-78.003,-48.035
-0.51,-1.527,-0.428,-92.773,-81.177,-29.419
-0.073,2.771,4.0,-67.261,49.561,-132.812
-3.02,-1.298,-0.676,207.52,-110.046,-74.28
-1.471,-0.288,-0.001,-8.24,-92.102,-79.956
-0.826,-0.435,0.501,61.768,-1.587,-43.823
-1.839,-0.391,-0.52,6.042,21.423,80.322
-0.465,0.245,-0.123,-63.782,-61.157,-64.392
-0.919,-0.831,0.241,6.409,8.423,10.376
-1.01,-0.16,-0.273,-7.996,-33.752,-30.151
-0.956,-0.053,-0.117,-1.099,-22.034,-27.71
-0.997,-0.009,-0.177,-34.241,-7.446,-14.099
-0.99,-0.103,-0.172,2.563,-2.258,-1.099
-0.952,-0.035,-0.256,-7.568,0.183,0.061
-0.96,-0.026,-0.219,-5.554,-1.221,-3.052
-0.967,-0.071,-0.222,7.751,-0.793,1.587
-0.958,-0.036,-0.204,4.15,-0.916,1.648
-0.959,-0.046,-0.225,3.418,0.183,0.732
-0.961,-0.064,-0.235,0.977,-1.099,0.793
-0.958,-0.057,-0.23,-0.183,0.916,0.977
-0.959,-0.054,-0.23,2.808,0.305,1.526
-0.96,-0.076,-0.241,-3.54,-1.465,-0.671
-0.964,-0.046,-0.23,-1.648,-1.465,-0.061
-0.966,-0.06,-0.239,4.211,0.305,0.916
-0.961,-0.065,-0.241,-3.967,-0.366,-1.221
-0.963,-0.057,-0.234,-3.174,0.61,-1.038
-0.97,-0.062,-0.226,0.061,1.953,-0.549
-0.967,-0.053,-0.208,1.953,2.991,1.526
-0.942,-0.051,-0.246,4.395,4.028,4.883
-0.947,-0.036,-0.237,3.784,2.869,2.014
-0.967,-0.069,-0.204,-0.977,0.916,-0.305
-0.964,-0.063,-0.213,-2.38,0.366,0.061
-0.962,-0.06,-0.219,-1.16,1.526,1.16
-0.968,-0.068,-0.215,-1.282,1.953,0.916
-0.965,-0.068,-0.214,0.488,2.93,1.831
-0.968,-0.084,-0.203,2.441,2.991,3.113
-0.963,-0.074,-0.21,4.089,2.686,3.052
-0.965,-0.08,-0.204,-2.441,0.977,0.427
-0.962,-0.074,-0.195,-1.77,0.488,0.366
-0.965,-0.072,-0.198,0.427,0.61,1.526
-0.976,-0.096,-0.189,-0.61,0.0,1.526
-0.968,-0.104,-0.177,-0.977,0.671,2.93
-0.965,-0.093,-0.205,0.0,0.549,2.808
-0.956,-0.074,-0.233,-1.343,0.183,2.075
-0.961,-0.074,-0.223,-2.136,-1.099,-0.793
-0.962,-0.074,-0.22,0.183,-1.343,-1.404
-0.966,-0.117,-0.21,1.282,-1.831,-1.282
-0.97,-0.107,-0.194,1.038,-1.587,-0.916
-0.968,-0.107,-0.199,-0.671,-0.854,-0.305
-0.966,-0.086,-0.218,-1.343,-0.122,-0.61
-0.96,-0.088,-0.215,1.099,0.0,-0.549
-0.962,-0.088,-0.214,1.404,-0.366,0.244
-0.961,-0.078,-0.214,1.099,-0.366,-0.061
-0.96,-0.082,-0.216,0.916,-0.183,-0.183
-0.963,-0.092,-0.218,-0.366,-0.732,-0.916
-0.96,-0.084,-0.231,-3.479,-0.793,-1.404
-0.964,-0.076,-0.215,-3.357,-0.854,-1.282
-0.966,-0.082,-0.222,-2.38,-0.183,-0.793
-0.962,-0.07,-0.235,0.305,-0.061,0.122
-0.965,-0.084,-0.223,0.305,-0.244,-0.183
-0.96,-0.084,-0.223,0.305,-0.061,-0.122
-0.961,-0.078,-0.221,0.305,0.244,0.061
-0.962,-0.082,-0.23,-1.526,0.427,-0.427
-0.962,-0.077,-0.224,-1.343,0.549,-0.488
-0.963,-0.075,-0.224,-0.122,0.732,0.366
-0.957,-0.077,-0.224,0.549,0.732,0.061
-0.964,-0.079,-0.227,-0.671,0.732,0.061
-0.964,-0.079,-0.225,0.427,0.488,0.244
-0.964,-0.081,-0.213,2.625,1.221,1.099
-0.962,-0.09,-0.215,2.747,1.099,1.526
-0.959,-0.077,-0.221,0.183,0.671,0.854
-0.96,-0.085,-0.223,0.61,0.427,0.122
-0.96,-0.079,-0.223,-0.061,0.488,-0.122
-0.961,-0.079,-0.22,1.038,0.305,0.0
-0.96,-0.077,-0.22,0.366,0.183,0.0
-0.963,-0.088,-0.22,-0.305,0.305,0.0
-0.958,-0.074,-0.226,-2.014,-0.549,-0.916
-0.963,-0.082,-0.222,-1.587,-0.549,-0.854
-0.959,-0.07,-0.223,0.977,0.0,-0.061
-0.959,-0.078,-0.227,0.183,-0.183,-0.244
-0.958,-0.072,-0.227,0.488,-0.488,-0.549
-0.961,-0.078,-0.226,0.183,-0.549,-0.793
-0.959,-0.07,-0.23,0.366,-0.122,-0.427
-0.96,-0.077,-0.23,0.366,-0.244,-0.549
-0.958,-0.061,-0.229,-0.305,-1.038,-0.732
-0.958,-0.076,-0.23,0.61,-0.916,-0.793
-0.957,-0.073,-0.232,0.305,-0.916,-0.488
-0.957,-0.07,-0.236,0.427,-0.854,-0.732
-0.958,-0.071,-0.238,-1.038,-1.221,-1.038
-0.963,-0.073,-0.235,-1.404,-0.854,-0.244
-0.956,-0.061,-0.242,1.953,0.0,0.427
-0.956,-0.07,-0.242,1.892,-0.122,0.305

-0.905,-0.505,0.29,43.945,-1.709,-2.441
-0.898,-0.539,0.33,46.814,5.432,2.014
-0.881,-0.558,0.327,46.814,12.024,9.277
-0.857,-0.544,0.357,53.101,16.357,17.944
-1.023,-0.371,0.255,47.485,61.035,45.105
-1.122,-0.52,0.233,55.237,75.562,55.359
-1.156,-0.574,0.153,56.458,80.872,63.782
-1.335,-0.604,0.214,40.649,80.2,91.187
-1.346,-0.254,0.341,8.301,87.524,113.281
-1.347,-0.056,-0.032,-26.062,82.153,108.582
-1.346,-0.052,-0.04,-26.672,71.899,107.422
-1.258,-0.417,0.245,-0.122,80.872,104.675
-1.217,-0.434,0.31,6.287,85.51,99.121
-1.187,-0.427,0.343,4.639,84.106,99.548
-1.117,-0.406,0.287,-18.066,84.839,105.225
-1.133,-0.386,0.231,-24.658,86.487,105.774
-1.131,-0.384,0.201,-28.87,83.252,105.957
-1.006,-0.332,0.036,-26.917,67.261,101.44
-1.004,-0.185,-0.07,-13.123,61.707,83.252
-0.896,-0.006,-0.125,-8.545,59.204,72.021
-0.458,0.012,0.036,4.639,28.137,35.95
-0.13,0.214,-0.251,13.855,-4.272,-4.395
-0.036,0.46,-0.451,10.071,-15.442,-26.733
0.141,0.793,-1.066,20.203,-98.877,-111.267
-0.358,-1.934,-0.115,135.071,-140.32,-119.751
-4.0,-0.914,1.068,120.483,-67.261,2.563
-0.749,0.742,0.162,-152.039,-6.897,-72.998
-0.281,0.392,0.07,23.132,-97.9,-105.652
-1.51,0.088,-0.291,127.502,-78.369,-104.248
-1.458,-0.341,-0.474,66.956,-69.824,-124.084
-1.718,-0.692,-0.953,-28.748,-145.752,-214.111
-2.387,-2.58,1.78,-3.54,-151.062,-178.406
-1.554,-1.464,1.651,-112.488,-77.942,-149.17
-0.566,-0.149,1.169,-5.066,-6.104,-8.484
0.228,-0.783,1.385,58.716,32.41,103.394
-0.975,-0.861,0.356,108.582,132.751,126.16
-2.867,-1.672,-0.482,16.602,184.998,178.345
-2.608,-0.212,-0.076,-103.638,203.064,208.13
-2.672,-0.058,-0.384,-128.845,212.341,252.441
-2.807,-0.031,-0.601,-54.199,170.898,276.367
-2.592,0.343,-0.663,-46.143,155.579,262.817
-1.037,1.116,-0.624,-0.183,92.102,199.097
-0.536,1.263,-0.527,32.959,60.974,151.855
-0.432,1.377,-0.525,61.584,38.696,117.554
0.121,0.662,-0.597,94.116,-46.631,-48.096
0.169,0.347,-0.601,85.632,-58.96,-130.493
-0.221,0.427,0.276,0.366,-22.095,-155.212
-0.212,-0.57,-0.021,-113.342,-1.404,-143.555
0.062,-1.188,-1.39,-43.396,-107.666,-15.015
0.085,-0.328,-1.358,-12.939,-133.118,4.7
-0.091,2.199,3.651,155.823,8.484,-119.202
-1.661,1.23,2.252,62.317,58.716,254.883
-0.011,2.266,-0.816,-398.682,129.639,22.888
-0.276,0.456,0.052,222.29,-130.981,-84.717
-0.738,-0.344,-1.35,138.489,-106.873,-97.229
-2.739,-1.716,-0.055,50.842,-98.572,-54.749
-0.841,-0.312,-0.023,18.372,-98.999,-76.538
-1.642,-0.457,-0.458,-50.537,-154.968,-177.979
-2.61,-0.681,-0.034,-52.429,-163.086,-171.936
-2.063,-0.701,0.552,-25.391,-166.565,-150.513
-1.492,-0.689,0.941,9.888,-101.257,-102.722
-1.087,-0.282,1.536,91.736,-79.041,-53.589
-0.145,-0.765,0.628,91.797,8.179,-50.537
0.078,-1.261,0.965,110.962,23.132,12.39
-0.206,-1.234,1.08,90.881,62.378,23.743
-0.579,-0.685,0.369,7.08,142.395,27.527
-3.134,-1.382,-0.874,-13.428,140.32,78.064
-3.167,-1.458,-0.935,-155.579,131.958,97.778
-1.591,-0.5,-0.078,-57.556,187.134,162.781
-3.531,-0.188,-0.585,-66.406,173.889,184.875
-3.261,-0.0,-0.637,-103.577,166.443,180.481
-1.444,0.826,-0.811,57.129,111.511,226.379
-0.735,0.597,-0.577,54.626,60.791,149.109
-0.665,0.623,-0.694,13.672,14.526,95.825
-0.408,0.924,-0.252,-1.831,-81.177,-14.893
0.045,0.325,0.903,26.917,-54.077,-88.257
0.013,0.856,0.66,-281.799,42.114,-125.977
0.338,0.429,-0.746,-328.735,-70.374,-117.065
-0.009,-0.855,0.458,-222.595,-18.799,-83.557
-0.684,-0.79,0.095,370.056,-33.508,26.489
-1.722,2.756,4.0,355.469,-7.324,-57.007
-0.921,0.198,-1.133,175.964,-5.188,-60.547
-2.601,-1.316,-0.175,252.625,-84.29,-51.208
-0.856,0.137,-0.126,15.015,-29.175,-24.841
-0.861,-0.119,-0.368,12.756,-73.242,-78.186
-1.456,-0.534,0.064,-21.729,-62.622,-75.806
-1.225,-0.288,-0.227,-60.974,-33.081,-82.947
-0.741,-0.849,-0.025,-14.221,-59.998,-94.849
-0.798,-0.776,0.48,41.077,-54.626,-63.293
-0.907,-0.314,0.5,-6.714,-13.855,-47.607
-0.794,-0.133,0.393,36.072,-38.818,-53.833
-0.482,-0.25,0.512,59.021,7.629,-41.382
-0.631,-0.462,0.458,92.407,17.273,-24.231
-0.888,-0.823,0.12,89.722,32.959,-6.897
-1.405,-0.769,-0.319,-34.241,78.613,28.259
-0.977,-0.149,-0.422,-22.095,44.067,36.194
-1.101,-0.043,-0.395,-23.621,34.18,35.095
-1.797,-0.152,-0.489,5.127,17.456,27.344
-1.344,0.178,-0.601,29.236,13.55,32.776
-1.217,0.352,-0.54,24.963,6.714,33.63
-0.899,0.4,-0.107,-32.959,-25.085,5.859
-0.895,0.28,-0.081,-57.373,-53.345,-38.818
-0.777,0.24,-0.166,-87.036,-43.64,-67.139
-0.548,0.204,-0.218,-65.796,-31.372,-56.519
-0.565,0.072,-0.203,-52.734,-48.95,-41.382
-0.86,0.024,-0.351,-48.035,-55.664,-34.363
-0.915,-0.47,0.125,26.428,-53.528,-17.578
-1.015,0.748,-0.646,-47.913,-53.589,-52.551
-1.101,0.434,0.144,4.028,-59.875,-74.402
-1.263,-1.034,-0.003,49.316,-17.029,-46.326
-1.009,-0.725,-0.248,-6.775,-27.71,-1.16
-1.065,0.253,-0.313,-57.678,-57.922,-19.348
-0.983,0.365,-0.039,-40.344,-57.19,-44.067
-0.986,0.113,-0.101,0.549,-28.687,-44.922
-0.947,-0.137,-0.249,22.461,-29.053,-35.034
-0.886,-0.193,-0.224,15.869,-30.396,-25.696
-0.934,-0.234,-0.204,-11.475,-24.78,-12.39
-0.94,-0.143,-0.246,-18.555,-18.86,-11.841
-0.97,-0.036,-0.208,-13.428,-17.822,-16.724

-0.888,-0.508,0.298,55.176,12.695,-6.226
-0.874,-0.625,0.384,64.209,17.761,-1.648
-0.85,-0.743,0.457,72.327,24.597,5.737
-0.839,-0.834,0.517,78.552,32.349,16.052
-1.002,-0.631,0.165,36.133,110.779,57.312
-1.521,-0.343,0.018,48.096,101.379,184.448
-1.489,-0.424,0.224,59.448,111.023,157.532
-1.556,-0.563,0.381,52.795,103.943,161.621
-1.524,-0.555,0.374,37.842,108.704,158.813
-1.039,-0.432,0.298,-3.54,100.769,131.47
-0.799,-0.35,0.184,-33.325,88.135,110.962
-0.483,-0.148,-0.127,-50.11,38.269,66.101
-0.437,-0.128,-0.144,-32.227,12.939,42.48
-0.42,-0.225,-0.003,-25.757,-2.686,24.109
-0.562,-0.309,-0.045,-0.122,-9.033,10.071
-0.322,0.811,-0.679,-12.939,-24.231,-78.674
-0.212,1.067,-1.058,-16.418,-81.604,-108.643
-0.235,-0.12,-0.016,97.229,-160.645,-152.832
-2.729,-4.0,1.491,344.482,-111.755,29.968
-0.091,0.798,0.098,-164.551,-24.048,-83.496
-0.386,0.349,0.307,75.073,-56.274,-123.535
-1.479,-0.473,0.238,148.132,-59.509,-105.774
-1.952,-0.546,-0.102,85.144,-17.883,-110.107
-0.78,-0.054,-0.367,69.885,-40.1,-135.925
-2.184,-2.123,0.109,-12.573,-162.109,-221.68
-1.858,-1.797,1.849,-104.37,-96.13,-176.575
-1.898,-0.867,1.231,-141.479,-102.905,-144.714
-0.229,-1.134,0.85,40.955,21.973,-18.066
-1.785,-0.388,-0.054,86.975,144.348,96.313
-2.789,-1.985,-0.852,-73.914,217.957,150.452
-3.067,-0.45,-0.582,-155.212,182.922,280.579
-2.814,0.224,-0.784,-73.242,146.545,262.878
-1.26,1.097,-0.753,-53.406,114.197,195.557
-0.268,1.716,-1.038,47.363,54.932,59.875
0.141,1.45,-1.301,130.737,-36.987,-35.156
0.176,0.963,-1.326,220.398,-34.668,-63.965
0.012,0.422,1.181,-63.538,14.16,-102.966
0.012,-0.916,-0.631,-85.754,-58.716,-70.557
0.211,-0.67,-1.068,-62.988,-104.919,43.03
0.011,2.967,0.056,-265.198,79.102,87.402
-0.336,-0.65,1.568,302.124,-182.373,-84.29
-1.914,-0.998,0.421,-2.686,-134.277,-153.564
-1.808,-1.764,1.386,14.832,-112.183,-143.311
-0.506,0.011,0.722,89.661,51.453,5.005
-0.487,-0.741,0.752,152.527,130.676,104.309
-1.006,-2.526,-0.955,-24.109,120.972,137.634
-1.336,-1.063,0.011,-162.598,91.736,175.781
-2.53,0.133,-0.466,-157.959,157.532,210.815
-2.588,0.167,-0.764,-203.247,147.156,206.116
-1.97,0.586,-0.837,-73.73,74.341,163.513
-1.222,1.109,-0.987,-3.357,61.279,157.593
-0.933,1.27,-0.988,36.682,45.105,144.348
-0.388,0.833,-0.088,71.106,-74.829,-49.561
-0.306,0.069,0.765,-88.44,-6.897,-104.126
0.213,-2.037,-1.18,-86.792,-54.504,12.939
-3.615,-1.678,3.993,227.844,-30.09,340.149
-0.687,0.155,-1.136,147.888,-83.557,-30.884
-0.624,-0.131,-0.252,-6.714,-75.073,-45.41
-0.719,-0.96,0.882,-24.048,-44.983,-78.369
-0.725,0.298,0.156,-31.677,31.86,-9.033
-1.126,-0.237,0.079,81.97,49.927,20.63
-1.491,-0.49,-0.084,16.785,50.049,38.574
-0.97,-0.125,-0.239,27.466,19.531,28.198
-1.249,0.131,-0.228,94.238,-18.188,39.246
-1.09,0.075,-0.163,-38.33,-40.1,-4.517
-0.888,0.315,-0.287,-69.946,-84.045,-100.586
-1.407,-0.561,-0.463,59.448,-12.39,13.123
-0.908,-0.222,-0.056,-45.532,-26.306,-27.161
-0.944,-0.139,-0.136,-47.729,-46.814,-38.452
-0.929,0.077,-0.231,-28.931,-47.913,-42.908
-0.937,-0.231,-0.106,2.808,-20.02,-30.457
-0.988,-0.327,-0.167,-27.1,-16.113,-19.287
-0.953,-0.081,-0.288,11.292,-2.808,-0.427
-0.947,-0.055,-0.264,12.207,-3.174,-1.343
-0.961,-0.068,-0.249,-15.747,-8.179,-8.24
-0.974,-0.07,-0.247,-13.367,-5.859,-5.859
-0.979,-0.066,-0.245,-9.46,-4.272,-4.272
-0.973,-0.055,-0.227,3.54,2.136,1.77
-0.95,-0.081,-0.262,1.587,1.709,2.686
-0.942,-0.029,-0.281,-9.216,-0.122,-0.061
-0.96,-0.021,-0.256,2.991,1.343,-0.183
-0.969,0.039,-0.266,13.489,0.305,-0.732
-0.966,-0.112,-0.23,20.63,3.845,2.686
-0.951,-0.117,-0.206,6.287,-2.258,-0.122
-0.962,-0.11,-0.208,-0.427,-3.357,-1.16
-0.956,-0.05,-0.242,-6.531,-3.174,-2.869
-0.954,-0.05,-0.249,-6.165,-3.113,-2.625
-0.943,-0.032,-0.272,-3.235,-2.93,-2.014
-0.969,-0.074,-0.251,-0.061,-1.404,-2.441
-0.964,-0.069,-0.23,-2.93,-1.16,-2.258
-0.955,-0.055,-0.251,4.15,-0.977,-0.427
-0.957,-0.034,-0.271,-0.122,0.854,-0.244
-0.947,-0.037,-0.276,0.916,-0.183,0.183
-0.951,-0.048,-0.272,0.0,0.183,0.061
-0.955,-0.051,-0.262,0.488,1.099,0.183
-0.95,-0.024,-0.272,-0.305,0.977,0.488
-0.96,-0.043,-0.262,1.953,0.122,0.427
-0.951,-0.021,-0.278,-5.127,0.122,-0.916
-0.952,-0.025,-0.269,1.404,0.549,0.488
-0.949,-0.032,-0.268,-0.977,0.244,-0.061
-0.951,-0.028,-0.275,-3.235,-0.366,-0.977
-0.954,-0.038,-0.271,0.671,0.061,0.305
-0.949,-0.034,-0.278,1.038,0.0,-0.122
-0.948,-0.038,-0.28,0.671,0.183,0.061
-0.953,-0.045,-0.269,-0.671,0.305,-0.061
-0.949,-0.037,-0.277,-0.183,0.183,-0.122
-0.951,-0.041,-0.28,0.732,0.305,0.061
-0.95,-0.037,-0.275,2.747,0.732,0.366
-0.951,-0.017,-0.269,-0.854,1.831,1.404
-0.955,-0.048,-0.252,0.061,0.183,-0.427
-0.954,-0.041,-0.257,-1.404,-0.183,-0.732
-0.952,-0.042,-0.265,0.183,0.366,0.061
-0.953,-0.044,-0.262,-0.061,0.305,-0.122
-0.953,-0.041,-0.267,-1.099,-0.244,-0.305
-0.954,-0.04,-0.26,-0.305,0.305,0.122
-0.953,-0.037,-0.262,-0.244,0.183,0.183
-0.954,-0.043,-0.263,0.122,0.0,-0.183
-0.953,-0.048,-0.263,0.793,0.122,-0.061
-0.952,-0.043,-0.265,0.61,0.549,-0.061

-0.877,-0.464,0.301,49.805,7.69,-1.465
-0.86,-0.526,0.333,56.274,14.465,3.723
-0.82,-0.607,0.299,59.387,21.545,10.742
-0.672,-0.896,0.199,68.42,35.4,54.749
-0.954,-0.514,0.492,35.95,63.721,91.003
-1.507,-0.8,0.475,2.136,93.872,93.201
-1.522,-0.16,0.648,-37.598,98.694,139.038
-1.472,0.488,0.443,-50.171,82.581,136.108
-1.504,-0.058,0.086,38.513,116.15,108.276
-1.566,-0.511,0.452,110.046,138.794,113.403
-1.438,-0.572,0.235,80.322,127.319,136.414
-1.109,-0.487,-0.018,9.46,89.966,103.699
-0.743,-0.326,-0.184,-21.179,37.842,62.378
-0.388,-0.161,-0.318,-48.157,-2.686,-9.033
-0.203,0.466,-0.241,-0.732,-8.728,-41.504
0.009,0.522,-0.549,3.357,-34.302,-53.894
0.167,0.907,-0.779,30.151,-113.342,-98.633
-0.26,-1.024,-0.035,108.215,-133.972,-124.146
-2.829,-0.467,-0.174,-85.144,-0.488,14.282
0.471,0.818,-1.182,-182.19,-32.349,-80.2
-2.07,-0.786,0.045,26.611,-32.104,-99.06
-0.875,0.242,-0.268,37.537,-57.251,-111.206
-2.229,-0.059,-0.966,-10.254,-115.967,-191.589
-1.843,-1.22,-0.236,-9.827,-141.052,-192.81
-1.834,-1.773,2.04,-7.568,-155.457,-164.429
-1.375,-1.203,1.449,-58.899,-98.328,-90.271
-0.811,-0.627,1.123,-43.274,-7.812,-24.109
-0.003,-0.635,0.793,56.152,71.228,20.447
-0.48,-0.123,0.715,67.81,102.234,79.712
-1.804,-1.136,-0.342,123.291,141.724,116.943
-2.538,-0.468,-0.125,-79.712,187.805,263.245
-2.91,-0.389,-0.482,-83.862,172.18,279.907
-1.806,0.732,-0.639,-48.157,105.225,219.543
-0.875,0.897,-0.537,-14.771,52.856,167.358
-0.143,1.055,-0.724,-1.587,-30.945,-22.156
0.151,0.631,-0.483,81.726,-15.503,-108.948
-0.019,-1.022,-0.332,-25.085,-57.922,-57.007
-0.106,-0.329,-1.213,7.446,-186.829,32.532
-4.0,-4.0,-3.981,65.43,183.96,-138.123
1.618,2.65,-4.0,-131.348,-24.048,-6.042
-0.028,0.68,-0.51,108.093,-112.0,-115.417
-3.765,-1.605,-0.033,68.237,-84.473,-69.641
-0.776,-0.137,-0.893,-138.55,-40.955,-148.193
-2.998,-0.145,-0.683,-141.418,-188.232,-164.001
-2.403,-0.402,0.594,15.869,-188.904,-154.541
-1.646,-0.491,1.021,18.372,-141.296,-120.178
-0.538,-1.12,1.639,139.954,-52.246,-70.312
0.148,-1.303,1.095,25.269,62.134,-28.137
-0.311,-0.831,1.023,17.639,85.327,23.01
-0.737,-0.321,-0.092,19.043,127.869,41.382
-3.313,-1.839,-1.143,-242.676,137.512,98.999
-1.895,-0.028,0.8,104.126,173.462,182.19
-2.716,0.534,-0.721,-64.148,185.059,202.515
-2.044,0.765,-0.596,42.297,142.822,262.573
-1.399,0.663,-0.303,35.828,79.651,207.397
-0.949,0.994,-0.698,-52.734,38.574,96.069
-0.284,0.651,0.036,-29.541,-17.578,-44.617
0.149,0.91,-0.266,-76.904,7.69,-70.801
-0.096,-0.855,-0.364,-47.607,-27.222,-75.623
-1.879,-0.884,1.107,306.213,-109.192,-0.305
-0.581,-1.122,0.027,230.408,-7.141,23.499
-4.0,-2.842,3.327,58.594,21.667,21.24
-0.062,3.722,-3.191,-225.769,125.488,57.007
0.392,0.733,-1.92,-184.082,-49.194,-114.624
-1.51,-1.938,-0.416,262.634,-133.85,-28.687
-2.322,-0.501,0.101,4.761,11.169,-17.273
-1.045,-0.056,-0.315,-92.224,-69.153,-50.415
-1.176,-0.119,-0.212,-37.109,-87.097,-66.833
-0.956,-0.547,-0.027,-45.532,-70.312,-76.66
-0.911,-0.117,-0.108,-20.447,-63.66,-49.072
-0.84,0.009,0.054,-31.555,-67.139,-72.876
-0.905,-0.208,0.209,-30.64,-65.308,-57.983
-0.751,0.062,-0.067,-14.954,-56.763,-56.091
-0.819,-0.072,-0.136,24.597,-46.204,-50.781
-0.815,-0.332,-0.057,26.917,-21.851,-27.039
-1.442,-0.501,-0.062,-3.418,-20.325,-28.564
-1.116,-0.256,-0.238,-18.25,-30.273,-24.231
-1.056,0.062,-0.296,-30.09,-35.583,-28.442
-0.974,0.185,-0.189,21.667,-29.358,-21.301
-0.95,0.233,-0.07,62.012,-17.822,-9.766
-0.923,-0.098,-0.125,75.378,-16.296,-15.747
-0.819,-0.321,-0.298,42.664,-17.578,-15.625
-0.9,-0.128,-0.271,14.343,-13.062,-8.118
-0.994,0.072,-0.201,0.305,-7.385,-9.155
-0.993,0.081,-0.175,-0.427,-14.832,-10.559
-0.997,0.008,-0.144,5.981,-21.179,-11.719
-0.962,-0.121,-0.227,3.479,-12.451,-17.029
-0.944,-0.13,-0.226,-3.052,-12.085,-15.625
-0.955,-0.026,-0.277,-14.771,-9.094,-13.977
-1.006,0.004,-0.256,-18.433,-9.338,-17.517
-0.983,0.013,-0.256,-23.01,-9.644,-18.433
-0.934,-0.012,-0.263,-21.973,-9.521,-15.808
-0.931,-0.022,-0.294,-18.311,-8.484,-12.878
-0.943,-0.01,-0.249,-8.545,-7.996,-9.033
-0.977,-0.002,-0.217,-6.287,-7.629,-9.033
-0.973,-0.031,-0.247,-5.066,-6.042,-5.371
-0.963,-0.04,-0.275,-7.874,-5.31,-4.211
-0.957,-0.026,-0.272,-10.62,-3.418,-1.343
-0.941,0.038,-0.317,-8.118,-3.54,-0.854
-0.931,0.066,-0.324,-2.502,-3.723,-0.671
-0.934,0.037,-0.333,1.343,-4.883,-1.16
-0.934,0.002,-0.325,1.038,-4.272,-1.343
-0.941,0.026,-0.322,1.709,-5.31,-1.404
-0.949,0.031,-0.309,2.625,-3.845,-2.319
-0.943,0.001,-0.302,8.057,-1.953,-0.305
-0.951,0.007,-0.317,6.042,-2.258,0.061
-0.946,0.019,-0.341,6.165,-2.563,-0.244
-0.928,0.006,-0.33,4.944,-2.319,-0.854
-0.918,0.017,-0.332,4.089,-2.197,-0.732
-0.924,0.032,-0.336,3.357,-1.648,-1.16
-0.929,0.03,-0.329,4.211,-1.831,-1.282
-0.93,0.017,-0.323,4.517,-1.709,-1.343
-0.937,0.02,-0.32,-0.244,-0.916,-0.793
-0.941,0.021,-0.33,-0.183,-0.305,-0.671
-0.937,0.018,-0.331,-0.488,-0.061,-0.427
-0.923,0.023,-0.329,-1.77,0.305,-0.366
-0.931,0.039,-0.343,-2.686,0.366,-0.061
-0.93,0.04,-0.339,-1.282,0.671,0.244
-0.93,0.028,-0.33,-0.183,1.404,0.793

-0.875,-0.542,0.221,59.57,7.324,1.221
-0.859,-0.574,0.264,62.744,11.658,7.263
-0.848,-0.599,0.266,63.721,17.334,14.587
-0.862,-0.596,0.202,57.922,27.893,35.645
-0.904,-0.35,0.038,50.171,33.264,46.875
-1.258,-0.289,0.396,37.415,60.608,51.636
-1.357,-0.563,0.54,26.917,89.294,63.11
-1.355,-0.439,0.358,4.333,95.276,99.487
-1.367,0.246,-0.072,8.667,67.993,109.68
-1.381,-0.218,-0.027,21.912,78.979,107.971
-1.424,-0.459,0.145,28.198,95.581,117.981
-1.295,-0.36,0.408,74.585,112.244,127.747
-1.241,-0.359,0.26,44.983,111.389,120.483
-1.092,-0.375,0.161,6.226,102.783,113.647
-0.881,-0.338,-0.036,-22.644,76.843,95.581
-0.689,-0.255,-0.056,-29.663,52.551,70.374
-0.201,-0.238,0.038,-17.212,12.756,17.029
-0.174,-0.289,0.091,1.16,-4.15,-7.08
-0.35,0.197,0.011,-1.77,-7.751,-50.293
-0.19,0.92,-0.972,33.203,-72.693,-109.802
-0.148,1.109,-1.066,33.142,-97.107,-116.516
-0.907,-4.0,0.507,236.328,-101.746,-105.53
-1.399,-0.469,-1.331,-241.211,49.133,-33.02
0.371,0.688,-0.595,-35.217,-89.844,-70.618
-0.831,-0.182,-0.376,95.276,-75.073,-96.924
-2.14,-0.677,-0.203,91.797,-63.843,-97.656
-0.828,-0.252,-0.023,30.334,-35.889,-100.525
-1.806,0.268,-0.648,26.917,-97.778,-139.771
-2.019,-0.451,-0.657,34.607,-122.803,-209.045
-1.921,-1.84,0.373,-35.034,-126.648,-212.83
-1.648,-2.059,2.066,-30.09,-46.814,-157.959
-0.65,-0.647,0.446,-88.928,22.766,-34.79
-0.643,-0.289,0.663,68.298,97.046,90.576
-1.741,-0.591,-0.027,49.988,165.405,216.614
-3.042,-0.959,-0.357,-73.059,179.016,272.095
-1.014,0.666,-0.35,-40.344,21.179,166.687
-0.739,0.886,-0.293,-41.077,-11.047,108.459
-0.149,0.978,-0.483,-39.612,-65.125,-54.626
0.192,0.627,-0.58,15.32,-43.762,-148.926
-0.029,0.078,0.496,-15.503,12.451,-131.47
-0.02,-0.755,-0.231,-24.597,-41.87,-39.612
-0.238,-0.812,-1.204,-3.418,-149.841,54.626
-3.993,1.998,3.631,161.682,68.726,-120.117
-1.545,-0.313,-1.121,-89.05,-138.428,-168.274
0.176,-0.581,0.392,124.573,83.374,25.635
-0.981,-0.782,0.42,121.46,171.326,127.869
-1.787,-0.428,-0.029,-54.81,113.647,213.074
-2.428,0.179,-0.914,-125.244,96.863,182.129
-0.507,1.0,-0.842,36.194,33.142,112.793
-0.398,1.074,-0.831,37.048,-99.609,9.46
-0.433,0.347,0.534,-34.912,-83.008,-81.543
-0.151,-0.486,-0.004,-69.397,-44.495,-70.801
0.231,-1.642,-0.54,15.137,-19.958,79.285
0.741,1.156,-2.828,-452.148,200.317,21.729
-0.897,-0.367,-0.064,-18.005,-28.503,-20.569
-1.518,-0.139,-0.24,-45.959,-98.938,-89.05
-0.7,-0.712,0.183,92.957,56.335,-29.419
-1.477,-0.57,0.118,-59.753,85.327,48.462
-1.26,0.241,-0.245,-3.967,65.979,52.979
-1.895,-0.053,-0.195,1.404,54.321,46.997
-1.208,0.192,-0.589,78.735,21.545,69.885
-0.964,0.221,-0.167,47.241,5.066,50.598
-0.975,0.031,-0.202,17.151,-34.973,24.109
-0.34,0.112,0.023,-124.878,-18.982,-82.825
-0.377,0.094,-0.028,-143.005,-23.804,-90.759
-1.126,0.195,-0.01,-49.927,-29.48,-82.275
-1.265,-0.205,-0.546,30.212,-57.617,-17.883
-0.931,0.463,-0.354,-36.133,-56.641,-43.579
-0.917,-0.159,-0.474,-12.756,-15.869,-31.433
-0.981,-0.003,-0.055,-22.644,-19.287,-34.668
-0.97,-0.074,-0.115,-10.071,-24.597,-35.339
-0.978,-0.231,-0.159,-16.479,-20.386,-19.287
-0.991,-0.272,-0.28,-35.522,-14.832,-14.954
-0.973,-0.156,-0.28,-36.377,-12.756,-14.832
-0.974,-0.078,-0.239,-25.208,-6.653,-12.695
-0.973,0.012,-0.216,-8.24,-6.226,-4.761
-0.948,0.028,-0.238,5.798,-6.409,-2.197
-0.958,0.014,-0.312,-21.729,-4.456,-6.287
-0.943,0.026,-0.275,-11.841,-2.38,-3.967
-0.957,-0.026,-0.295,15.625,1.099,0.183
-0.945,-0.065,-0.297,20.264,0.488,3.418
-0.963,-0.082,-0.261,15.198,-0.61,3.54
-0.956,-0.027,-0.258,4.272,-2.686,1.831
-0.954,-0.027,-0.304,-8.911,3.723,-0.244
-0.944,-0.012,-0.289,-7.019,2.319,-0.488
-0.949,-0.015,-0.294,-1.343,0.61,2.38
-0.956,-0.034,-0.269,-0.549,2.625,0.427
-0.956,-0.039,-0.267,1.343,2.625,0.61
-0.958,-0.042,-0.266,1.221,2.441,0.854
-0.955,-0.047,-0.269,0.061,2.136,1.038
-0.945,-0.032,-0.277,-2.991,2.136,1.16
-0.958,-0.037,-0.285,0.183,2.808,-0.366
-0.95,-0.039,-0.269,-2.197,4.333,0.732
-0.951,-0.016,-0.262,-3.784,4.028,0.061
-0.953,-0.008,-0.256,-2.563,3.296,-0.427
-0.957,-0.032,-0.272,1.221,3.296,-0.061
-0.957,-0.031,-0.27,0.488,4.089,0.549
-0.957,-0.022,-0.253,1.221,4.7,1.16
-0.949,-0.011,-0.246,4.15,4.456,1.892
-0.953,-0.015,-0.252,6.958,4.15,2.319
-0.954,-0.017,-0.253,7.446,3.784,2.319
-0.95,-0.024,-0.257,7.568,3.906,1.831
-0.952,-0.028,-0.262,7.324,4.333,1.16
-0.952,-0.026,-0.245,5.188,4.15,0.61
-0.96,-0.036,-0.234,3.296,4.333,0.61
-0.964,-0.037,-0.224,2.563,4.578,0.427
-0.967,-0.034,-0.223,3.54,4.211,0.61
-0.962,-0.036,-0.221,4.211,3.723,1.16
-0.962,-0.037,-0.221,4.7,3.601,1.404
-0.963,-0.028,-0.229,7.935,3.845,1.709
-0.965,-0.032,-0.218,7.874,4.028,1.587
-0.962,-0.047,-0.212,5.188,3.784,1.038
-0.969,-0.035,-0.216,0.977,2.625,0.061
-0.967,-0.038,-0.216,1.831,3.113,0.366
-0.96,-0.046,-0.22,3.174,3.601,1.221
-0.962,-0.037,-0.21,1.831,3.601,0.671
-0.955,-0.033,-0.215,2.258,3.296,0.793
-0.964,-0.03,-0.22,1.587,2.869,0.61
-0.965,-0.029,-0.218,1.282,2.991,0.488

-0.926,-0.473,0.311,47.363,2.319,-0.61
-0.906,-0.547,0.344,55.725,7.935,4.211
-0.704,-0.677,0.277,83.862,44.861,64.575
-1.121,-0.104,0.498,15.808,93.75,63.11
-1.271,-0.324,0.242,91.919,95.276,105.713
-1.371,-0.609,0.362,31.25,98.816,113.77
-1.256,-0.593,0.19,-22.4,83.191,119.812
-0.861,-0.207,0.134,-67.688,57.739,85.571
-0.376,0.006,0.143,-7.507,14.709,3.357
-0.26,0.64,-1.116,37.903,-65.857,-102.417
-0.026,-0.3,-0.316,122.192,-135.132,-131.531
-0.235,0.584,0.417,-2.136,-126.77,-76.294
-1.072,-0.307,-0.235,31.494,-63.049,-120.361
-1.939,-1.29,-0.485,9.094,-140.808,-215.454
-1.374,-0.878,1.423,-149.841,-106.75,-127.075
0.313,-0.916,0.944,48.95,91.919,52.124
-1.696,-1.547,-0.299,75.623,189.758,169.067
-2.343,-0.665,-0.196,-44.189,158.875,215.088
-3.111,-0.559,-0.333,-93.384,177.246,300.049
-1.11,0.89,-0.579,-34.851,73.547,183.899
0.092,0.8,-1.115,39.856,-105.652,-92.651
-0.005,-1.118,-0.431,-92.59,-51.208,-78.186
0.012,1.798,3.906,130.981,-125.549,-126.16
1.148,1.653,-0.521,-72.021,-95.154,-98.999
-0.881,-0.034,0.061,-19.958,-69.519,-78.552
-2.007,-0.708,1.293,58.96,-168.03,-151.978
-0.427,-0.878,1.298,191.528,32.776,4.7
-0.314,-0.773,-0.417,51.636,181.885,64.636
-1.945,-0.141,0.304,-65.796,89.172,184.631
-0.924,0.944,-0.569,33.875,78.552,184.937
-0.555,1.077,-0.511,58.96,-84.045,12.085
0.028,-0.714,-0.718,12.573,-40.222,-12.817
-4.0,-1.579,4.0,88.135,30.945,334.167
-0.768,-0.184,-1.659,91.736,1.465,-81.482
-0.699,-0.036,-0.188,-21.179,-15.32,-26.489
-1.132,-0.511,0.312,-17.212,-83.191,-84.351
