aX,aY,aZ,gX,gY,gZ
-0.915,-0.615,0.178,46.082,35.828,72.021
-0.914,-0.486,0.287,35.461,44.922,78.369
-0.887,-0.361,0.215,21.851,55.847,83.679
-0.857,-0.263,0.087,7.812,63.232,87.646
-0.837,-0.183,0.037,6.653,66.162,89.172
-0.831,-0.088,0.06,22.827,66.895,87.524
-0.773,-0.112,-0.002,69.336,71.655,80.933
-0.703,-0.228,-0.009,99.121,53.894,87.708
-0.694,-0.361,-0.078,105.164,44.006,95.703
-0.76,-0.511,-0.098,89.539,38.879,101.624
-0.838,-0.62,0.033,72.083,40.771,104.004
-0.992,-0.51,0.031,37.17,41.565,110.352
-0.92,-0.518,0.015,18.494,45.471,100.952
-0.917,-0.504,0.077,11.292,42.358,94.666
-0.957,-0.497,0.118,6.653,40.039,93.323
-0.905,-0.598,0.242,0.244,35.4,94.91
-0.866,-0.575,0.341,-5.859,37.903,93.811
-0.761,-0.599,0.41,11.353,48.95,87.097
-0.761,-0.612,0.366,12.695,48.401,85.815
-0.743,-0.67,0.355,30.579,46.57,82.092
-0.69,-0.948,0.089,6.592,39.307,67.688
-0.638,-0.935,0.067,4.272,31.555,66.589
-0.533,-0.937,0.037,5.31,18.982,59.509
-0.34,-1.02,0.057,5.432,11.292,54.749
-0.293,-1.12,0.056,2.014,5.798,47.485
-0.347,-1.07,0.08,-10.071,-3.418,44.678
-0.395,-0.999,0.157,-16.602,-11.23,40.283
-0.421,-0.926,0.456,-3.113,-18.372,21.79
-0.492,-0.878,0.514,-7.751,-10.01,4.578
-0.527,-0.907,0.425,-3.601,-7.141,-2.197
-0.525,-0.934,0.337,0.549,-3.662,-14.099
-0.527,-1.0,0.248,-0.366,-4.395,-16.968
-0.542,-1.036,0.198,-2.625,-8.972,-23.254
-0.517,-0.985,0.146,-7.568,-15.442,-28.687
-0.516,-0.987,0.169,-9.094,-21.179,-33.569
-0.541,-0.977,0.246,-12.573,-25.085,-39.978
-0.573,-0.902,0.297,-16.602,-25.33,-45.471
-0.593,-0.795,0.367,-22.766,-26.855,-58.105
-0.645,-0.707,0.426,-17.029,-25.757,-63.599
-0.707,-0.692,0.374,0.977,-23.438,-68.848
-0.74,-0.686,0.401,4.395,-19.714,-74.036
-0.774,-0.638,0.373,8.789,-17.761,-77.148
-0.785,-0.625,0.358,7.996,-15.991,-79.224
-0.791,-0.639,0.15,6.714,-15.198,-87.158
-0.838,-0.63,0.129,5.859,-21.24,-93.75
-0.874,-0.601,0.119,6.47,-24.414,-94.788
-0.814,-0.591,0.023,-1.526,-30.762,-89.172
-0.807,-0.531,0.02,-4.7,-37.17,-87.28
-0.844,-0.487,0.008,-7.996,-42.297,-90.088
-0.867,-0.471,0.053,-11.78,-48.462,-96.802
-0.857,-0.446,0.079,-18.311,-50.842,-99.731
-0.851,-0.35,0.063,-34.363,-54.504,-100.891
-0.849,-0.383,0.042,-46.57,-52.979,-102.539
-0.794,-0.387,0.09,-62.195,-54.321,-98.328
-0.754,-0.319,0.125,-72.876,-51.819,-94.666
-0.746,-0.288,0.118,-85.327,-50.11,-87.585
-0.792,-0.183,0.043,-76.965,-51.025,-81.848
-0.824,-0.152,0.13,-67.81,-54.443,-77.881
-0.865,-0.141,0.183,-46.326,-54.504,-69.946
-0.874,-0.166,0.251,-41.565,-43.213,-61.523
-0.961,-0.152,0.105,-25.94,-38.452,-44.739
-0.958,-0.079,-0.036,-0.61,-17.151,-22.461
-0.95,-0.133,-0.06,5.615,-13.55,-20.691
-1.001,-0.161,-0.089,3.296,-9.583,-19.653
-1.002,0.085,-0.111,-15.564,6.47,-16.235
-1.027,0.221,0.069,12.085,4.517,-14.343
-0.896,-0.291,-0.312,9.827,-16.968,-6.104
-0.968,-0.193,0.12,22.888,-16.357,8.789
-0.988,-0.002,-0.095,-13.55,3.174,4.7
-0.925,0.087,-0.061,-10.437,5.31,4.761
-1.151,-0.036,-0.052,11.414,4.15,2.319
-0.888,0.174,-0.111,-3.174,6.287,6.226
-0.963,0.139,-0.079,21.179,-0.977,3.418
-0.96,-0.085,-0.058,24.78,-1.892,8.057
-0.976,-0.018,-0.109,12.695,-1.404,8.545
-0.982,-0.006,-0.097,8.545,-2.258,6.958
-0.994,-0.021,-0.085,5.249,1.343,5.554
-1.0,-0.041,-0.051,5.066,2.075,5.92
-0.98,0.007,-0.054,-0.244,9.827,8.118
-0.981,-0.069,-0.053,-2.258,2.502,6.897
-0.981,-0.023,-0.012,-6.042,4.517,9.827
-0.974,0.004,-0.034,-8.85,9.033,10.315
-0.979,0.002,0.009,-4.944,8.057,10.559
-0.987,-0.031,-0.051,2.075,11.108,13.0
-0.978,-0.023,0.113,19.226,13.855,20.02
-0.984,-0.055,0.151,28.259,21.545,22.766
-0.939,-0.098,0.18,34.729,33.875,29.846
-0.977,-0.136,0.141,41.016,32.837,31.677
-0.894,-0.134,0.182,52.002,26.733,40.161
-0.887,-0.145,0.062,54.443,40.833,48.889
-0.906,-0.19,0.04,47.363,35.339,53.101
-0.907,-0.307,0.13,50.415,47.424,58.472
-0.844,-0.283,0.155,47.302,50.476,64.026
-0.828,-0.219,0.186,18.86,51.392,76.538
-0.814,-0.251,0.065,28.32,61.157,82.336
-0.868,-0.275,0.135,42.786,55.603,87.952
-0.808,-0.277,0.068,49.316,64.697,84.106
-0.762,-0.235,0.087,60.974,56.091,92.285
-0.78,-0.304,0.049,63.538,60.303,98.633
-0.794,-0.46,0.036,70.068,51.331,101.196
-0.82,-0.474,0.168,61.523,45.532,109.009
-0.839,-0.499,0.093,51.208,53.406,108.459
-0.798,-0.503,-0.014,36.865,50.964,107.666
-0.805,-0.644,0.038,38.757,29.175,105.957
-0.752,-0.651,0.114,-20.874,44.617,103.882
-0.661,-0.556,0.209,-22.705,43.274,97.9
-0.701,-0.657,0.165,-14.282,33.875,94.421
-0.786,-0.721,0.281,7.385,28.259,94.971
-0.55,-0.878,0.274,2.869,27.527,89.905
-0.597,-0.924,0.156,-1.404,23.926,83.618
-0.467,-0.919,0.342,-12.573,5.798,67.688
-0.436,-0.916,0.451,-14.832,7.019,59.021
-0.418,-0.907,0.498,-9.155,10.254,52.917
-0.547,-0.836,0.447,-9.521,13.123,42.664
-0.351,-0.995,0.494,-4.578,9.705,28.198
-0.352,-1.005,0.315,0.488,10.376,-0.427
-0.318,-1.061,0.309,-2.38,2.075,-9.399
-0.357,-1.001,0.297,-2.014,-8.911,-22.4
-0.445,-0.882,0.385,-13.428,-29.053,-45.959

-0.58,-0.786,0.414,-11.719,-29.114,-59.082
-0.628,-0.714,0.364,-11.475,-28.748,-62.561
-0.679,-0.668,0.388,-6.714,-29.541,-64.27
-0.76,-0.603,0.374,4.211,-23.499,-67.566
-0.784,-0.599,0.336,7.019,-23.376,-68.665
-0.817,-0.596,0.311,6.47,-22.156,-71.777
-0.807,-0.577,0.26,4.639,-21.912,-72.815
-0.807,-0.589,0.203,6.287,-24.17,-73.12
-0.806,-0.575,0.183,5.249,-27.649,-72.083
-0.815,-0.58,0.16,5.005,-29.785,-71.411
-0.811,-0.519,0.175,1.953,-31.982,-68.848
-0.834,-0.478,0.157,-0.183,-33.081,-70.19
-0.874,-0.46,0.111,-2.319,-37.964,-70.496
-0.845,-0.449,0.068,-8.24,-40.955,-70.374
-0.848,-0.461,0.081,-9.094,-43.823,-72.449
-0.885,-0.369,0.105,-33.813,-44.006,-77.515
-0.905,-0.356,0.123,-38.513,-45.654,-78.43
-0.825,-0.273,0.155,-66.711,-39.124,-75.256
-0.815,-0.219,0.072,-64.758,-36.804,-73.059
-0.867,-0.169,0.16,-62.866,-47.974,-71.472
-0.867,-0.171,0.211,-50.415,-44.006,-68.237
-0.866,-0.114,0.199,-46.814,-36.987,-62.622
-0.903,-0.071,0.145,-41.382,-36.438,-58.899
-0.911,-0.159,0.1,-5.188,-45.044,-46.753
-0.958,-0.107,-0.028,-0.854,-40.405,-36.743
-0.997,-0.149,-0.025,11.047,-44.678,-36.926
-0.98,-0.102,-0.009,-5.127,-34.424,-31.067
-1.0,-0.059,-0.095,-13.245,-25.33,-31.372
-0.93,0.113,-0.078,-26.733,-25.208,-38.33
-0.971,0.057,-0.041,-42.358,-18.311,-47.852
-0.942,0.077,-0.126,-59.326,-16.113,-45.959
-0.964,0.056,-0.095,-61.584,-20.081,-43.945
-1.066,0.025,-0.177,-44.312,-12.268,-33.813
-0.965,0.137,-0.245,-25.269,-5.249,-15.625
-0.979,0.118,-0.147,-23.315,2.319,-6.897
-0.97,0.182,-0.12,-2.686,-4.272,-3.296
-0.982,0.153,-0.204,3.479,-4.822,-1.404
-0.929,0.173,-0.132,13.733,-6.897,3.174
-0.933,0.167,-0.164,10.254,-5.554,2.441
-0.918,0.181,-0.203,13.184,-4.211,-2.197
-0.922,0.177,-0.199,17.578,-3.601,-6.165
-0.932,0.163,-0.195,20.996,-1.099,-8.179
-0.996,0.09,-0.204,-5.737,-0.916,-3.418
-0.953,0.101,-0.172,-10.681,1.77,-0.488
-0.953,0.126,-0.205,-8.179,1.526,-0.854
-0.949,0.183,-0.163,6.042,3.235,-1.16
-0.941,0.189,-0.152,11.047,2.014,0.305
-0.937,0.19,-0.19,11.414,1.465,0.244
-0.934,0.182,-0.207,11.841,-1.343,0.427
-0.942,0.175,-0.206,11.841,-1.892,0.0
-0.953,0.148,-0.192,8.606,-1.709,-0.61
-0.95,0.139,-0.183,6.165,-1.465,-0.732
-0.954,0.132,-0.18,2.014,0.671,-1.465
-0.95,0.132,-0.18,1.587,1.404,-1.953
-0.957,0.139,-0.186,0.549,2.38,-3.113
-0.952,0.156,-0.18,-2.319,1.404,-3.662
-0.948,0.16,-0.174,-2.747,0.916,-3.601
-0.943,0.168,-0.17,-2.747,0.549,-2.991
-0.943,0.172,-0.172,-2.686,-15.442,-2.563
-0.946,0.175,-0.168,-0.305,-0.732,-1.892
-0.949,0.174,-0.169,2.38,-1.099,-1.404
-0.954,0.17,-0.168,4.15,-0.916,-1.282
-0.957,0.159,-0.164,4.7,-1.099,-1.16
-0.95,0.152,-0.172,3.296,-0.61,-0.732
-0.951,0.153,-0.182,2.686,-0.732,-0.488
-0.954,0.161,-0.175,2.014,-1.16,-0.549
-0.955,0.166,-0.173,1.16,-0.732,-0.854
-0.941,0.177,-0.178,0.122,-0.427,-1.16
-0.942,0.178,-0.182,0.61,0.244,-1.221
-0.948,0.176,-0.179,0.61,0.244,-1.16
-0.948,0.172,-0.177,0.244,0.427,-0.916
-0.942,0.175,-0.182,1.099,-0.427,-0.549
-0.939,0.179,-0.184,1.526,-0.549,-0.793
-0.941,0.181,-0.182,2.197,-0.366,-0.854
-0.948,0.184,-0.178,1.221,0.061,-0.671
-0.946,0.187,-0.177,0.793,0.183,-0.427
-0.947,0.188,-0.179,0.793,-0.122,-0.549
-0.941,0.19,-0.18,0.732,-0.183,-0.671
-0.941,0.189,-0.179,1.16,0.0,-0.61
-0.948,0.182,-0.175,1.282,0.122,-0.122
-0.945,0.182,-0.18,1.038,0.061,-0.244
-0.941,0.184,-0.18,0.732,0.183,-0.244
-0.942,0.179,-0.181,1.16,0.0,-0.244
-0.943,0.181,-0.18,1.221,0.122,-0.061
-0.948,0.184,-0.181,0.793,-0.122,-0.305
-0.94,0.177,-0.178,1.099,0.183,-0.122
-0.945,0.176,-0.178,0.916,-0.122,0.061
-0.949,0.176,-0.178,0.61,-0.061,0.0
-0.944,0.186,-0.177,0.977,0.061,-0.183
-0.94,0.185,-0.177,0.671,0.366,-0.244
-0.944,0.183,-0.179,0.549,0.244,0.0
-0.944,0.179,-0.179,0.549,0.061,-0.122
-0.944,0.18,-0.18,0.0,0.0,-0.183
-0.945,0.185,-0.178,-0.244,0.183,-0.244
-0.941,0.184,-0.178,-0.305,0.488,-0.244
-0.943,0.184,-0.178,-0.122,0.305,-0.183
-0.941,0.184,-0.178,-0.061,0.305,0.0
-0.943,0.184,-0.182,-0.244,0.244,-0.122
-0.942,0.182,-0.179,0.977,0.244,0.0
-0.944,0.183,-0.179,0.732,0.244,-0.061
-0.945,0.178,-0.176,0.061,0.732,0.122
-0.943,0.181,-0.18,-0.305,0.366,0.0
-0.944,0.182,-0.179,-0.183,0.244,0.061
-0.942,0.186,-0.178,0.244,0.244,0.0
-0.941,0.184,-0.177,0.122,0.366,0.061
-0.941,0.183,-0.178,0.305,0.732,0.427
-0.945,0.183,-0.181,0.427,0.488,0.183
-0.945,0.181,-0.179,0.488,0.366,0.183
-0.94,0.182,-0.178,0.854,0.671,0.366
-0.948,0.181,-0.179,0.244,0.488,0.183
-0.941,0.182,-0.178,0.305,0.549,0.244
-0.94,0.183,-0.178,0.671,0.488,0.244
-0.944,0.185,-0.176,0.854,0.427,0.366
-0.944,0.182,-0.174,0.854,0.549,0.244
-0.943,0.179,-0.176,0.977,0.305,0.305
-0.945,0.177,-0.175,0.916,0.427,0.183
-0.945,0.177,-0.174,0.549,0.549,0.244
-0.946,0.178,-0.174,0.427,0.488,0.305
-0.945,0.179,-0.173,0.61,0.549,0.183

-0.858,-0.355,0.087,74.524,59.021,82.642
-0.822,-0.32,-0.09,58.716,67.139,87.952
-0.82,-0.263,0.008,47.485,59.998,90.881
-0.848,-0.214,0.212,40.588,48.523,90.82
-0.877,-0.191,0.293,41.809,47.974,90.027
-0.868,-0.238,0.118,47.424,59.448,89.294
-0.83,-0.251,-0.1,54.932,67.383,89.233
-0.832,-0.277,0.07,73.792,47.485,87.463
-0.81,-0.307,0.002,57.251,44.25,98.328
-0.891,-0.475,0.113,50.049,42.053,104.37
-0.919,-0.388,0.215,23.254,41.931,103.699
-0.878,-0.359,0.258,11.78,49.866,100.464
-0.889,-0.341,0.233,7.568,63.11,97.595
-0.911,-0.479,0.364,16.785,59.937,97.839
-0.763,-0.517,0.389,15.808,66.711,94.543
-0.685,-0.512,0.364,20.447,63.477,92.834
-0.642,-0.631,0.345,24.963,62.805,92.041
-0.663,-0.759,0.245,23.743,64.453,89.478
-0.685,-0.919,0.103,14.282,50.72,82.092
-0.485,-1.087,0.21,8.728,20.325,79.285
-0.502,-1.059,0.212,0.671,16.724,78.247
-0.355,-0.902,0.325,-10.01,10.803,65.369
-0.316,-0.979,0.39,-3.418,6.165,58.838
-0.371,-1.005,0.412,-1.221,3.662,57.434
-0.465,-0.92,0.388,-11.414,5.676,51.514
-0.512,-0.741,0.337,-13.611,10.193,47.974
-0.365,-0.971,0.447,13.062,0.305,38.513
-0.345,-1.097,0.487,11.658,1.831,33.63
-0.383,-1.119,0.496,8.24,4.211,28.992
-0.447,-0.951,0.457,-4.089,6.287,16.479
-0.425,-0.918,0.444,-5.676,6.226,12.207
-0.375,-0.981,0.439,-1.648,3.052,2.38
-0.431,-1.03,0.46,-5.249,-0.793,-7.141
-0.44,-1.004,0.424,-6.287,-1.648,-9.155
-0.447,-0.973,0.363,-4.15,-4.272,-13.367
-0.449,-1.01,0.315,-0.427,-9.766,-17.944
-0.464,-1.046,0.314,1.587,-12.939,-20.142
-0.455,-1.04,0.274,-1.282,-19.653,-25.391
-0.465,-1.009,0.275,-6.592,-27.283,-30.09
-0.474,-0.997,0.306,-2.869,-30.64,-31.128
-0.449,-0.908,0.418,-5.188,-38.635,-39.307
-0.431,-0.918,0.367,-24.78,-27.039,-43.884
-0.456,-0.885,0.405,-20.142,-33.691,-49.866
-0.453,-0.792,0.422,-23.132,-33.203,-55.664
-0.463,-0.754,0.475,-21.851,-31.372,-59.937
-0.488,-0.701,0.444,-20.813,-29.846,-62.012
-0.586,-0.69,0.436,-9.338,-26.001,-69.031
-0.696,-0.643,0.34,5.92,-25.024,-72.327
-0.776,-0.65,0.247,12.817,-25.635,-74.951
-0.872,-0.585,0.14,11.78,-36.926,-82.336
-0.909,-0.541,0.078,6.653,-45.776,-83.069
-0.907,-0.466,0.071,-13.977,-40.405,-86.06
-0.909,-0.339,0.085,-31.494,-42.847,-90.027
-0.894,-0.32,0.119,-34.363,-44.556,-94.666
-0.899,-0.268,0.12,-44.312,-48.157,-94.666
-0.876,-0.133,0.061,-46.448,-48.462,-89.417
-0.826,-0.162,0.021,-41.687,-59.692,-85.876
-0.832,-0.167,-0.07,-32.715,-71.228,-82.52
-0.854,-0.098,0.012,-37.17,-78.674,-83.374
-0.835,-0.18,0.036,-41.199,-67.078,-84.961
-0.763,-0.254,0.27,-58.96,-43.396,-77.454
-0.845,-0.258,0.242,-88.745,-30.273,-62.195
-0.955,-0.127,0.144,-84.106,-25.818,-59.143
-1.032,-0.062,0.124,-54.688,-31.982,-49.194
-1.013,-0.013,0.054,-55.298,-24.17,-47.791
-0.967,0.191,-0.017,-53.101,-20.691,-40.039
-0.951,0.189,-0.13,-21.729,-25.391,-41.138
-0.871,0.254,-0.149,-1.709,-43.945,-32.288
-0.978,0.16,0.046,12.817,-46.448,-35.828
-0.988,0.074,0.014,13.184,-24.048,-37.354
-1.117,-0.185,-0.041,-7.385,0.305,-30.884
-1.152,-0.19,-0.388,-25.513,5.676,5.249
-0.936,0.177,-0.207,-26.123,15.686,11.23
-0.909,0.349,-0.103,-5.493,0.916,3.235
-0.875,0.313,-0.109,16.296,3.418,-2.136
-0.884,0.258,-0.137,29.236,1.465,-5.066
-0.956,0.144,-0.133,19.226,-12.146,-3.723
-0.972,0.099,-0.213,3.967,-6.958,-1.343
-0.979,0.11,-0.166,-0.244,-4.211,-4.944
-0.973,0.11,-0.147,-1.099,14.099,-8.362
-0.922,0.129,-0.186,-6.531,4.395,-10.254
-0.924,0.19,-0.214,-8.606,-1.831,-14.954
-0.958,0.194,-0.15,-10.132,-2.625,-15.381
-0.956,0.228,-0.156,-10.193,-0.244,-11.963
-0.944,0.222,-0.105,-5.859,-4.761,-6.348
-0.954,0.193,-0.133,5.554,-4.822,-2.319
-0.96,0.161,-0.174,9.766,-5.371,-1.892
-0.951,0.141,-0.203,11.78,-8.484,-1.465
-0.951,0.154,-0.19,3.601,-5.249,-1.892
-0.952,0.161,-0.189,0.305,-4.089,-2.563
-0.955,0.169,-0.165,-4.333,0.061,-3.296
-0.953,0.171,-0.165,-4.883,1.77,-3.174
-0.943,0.192,-0.184,-4.883,1.343,-2.014
-0.93,0.206,-0.179,-3.235,-0.793,-1.465
-0.932,0.215,-0.178,-1.892,-1.465,-1.282
-0.935,0.228,-0.184,1.892,-4.028,-1.343
-0.93,0.221,-0.18,2.686,-4.272,-1.404
-0.935,0.209,-0.177,4.517,-4.517,-1.16
-0.947,0.192,-0.182,4.395,-4.028,-0.916
-0.943,0.19,-0.189,3.723,-3.723,-0.671
-0.937,0.189,-0.202,2.869,-2.319,-0.244
-0.934,0.191,-0.215,2.686,-1.831,-0.61
-0.938,0.198,-0.214,1.77,-2.38,-1.038
-0.933,0.204,-0.211,1.709,-2.441,-1.16
-0.927,0.231,-0.205,3.174,-1.526,-1.709
-0.932,0.206,-0.189,0.305,-0.305,-2.441
-0.931,0.2,-0.196,0.916,-1.343,-2.136
-0.934,0.199,-0.197,1.099,-1.648,-2.014
-0.94,0.191,-0.189,0.671,-3.418,-2.197
-0.939,0.19,-0.189,0.488,-3.418,-2.319
-0.935,0.196,-0.207,0.305,-2.625,-2.38
-0.94,0.198,-0.202,-0.122,-3.052,-2.319
-0.946,0.199,-0.193,-0.244,-2.502,-1.892
-0.94,0.203,-0.198,-0.183,-1.953,-1.709
-0.93,0.222,-0.203,-1.099,-1.404,-1.404
-0.931,0.219,-0.196,-1.221,-1.282,-1.465
-0.93,0.214,-0.196,-1.709,-0.549,-1.526
-0.926,0.22,-0.213,-2.136,-1.282,-1.343
-0.931,0.222,-0.207,-1.831,-1.953,-1.343

-1.017,-0.351,0.174,62.927,37.17,123.718
-1.024,-0.406,0.151,52.49,45.044,121.582
-1.002,-0.462,0.142,40.649,48.157,118.469
-0.992,-0.528,0.125,30.945,47.485,116.089
-0.987,-0.573,0.169,19.104,45.898,114.136
-0.957,-0.497,0.322,-9.521,58.594,107.971
-0.906,-0.516,0.308,-12.512,57.922,96.436
-0.809,-0.497,0.353,-17.029,66.956,90.454
-0.631,-0.51,0.226,-2.747,59.875,91.553
-0.647,-0.844,0.251,13.428,41.931,86.609
-0.581,-0.862,0.238,0.549,35.156,84.595
-0.555,-0.904,0.337,0.244,22.278,75.256
-0.479,-0.816,0.411,-2.869,22.461,68.848
-0.326,-0.899,0.405,-6.165,25.146,62.073
-0.485,-0.879,0.403,-6.348,23.438,58.35
-0.561,-0.771,0.394,-11.23,24.414,54.871
-0.531,-0.754,0.371,-9.094,22.034,51.27
-0.385,-0.985,0.38,8.85,17.517,46.936
-0.416,-0.931,0.381,11.658,8.667,40.466
-0.503,-1.006,0.362,14.709,1.587,35.767
-0.406,-1.121,0.405,18.25,1.282,26.489
-0.35,-1.0,0.438,-7.812,3.479,10.193
-0.406,-0.964,0.435,-14.038,0.427,2.502
-0.425,-0.957,0.426,-10.559,-3.418,-0.366
-0.407,-0.991,0.358,0.916,-10.681,-9.766
-0.4,-1.032,0.349,2.38,-13.916,-12.39
-0.432,-1.084,0.328,1.526,-18.921,-17.761
-0.49,-1.031,0.314,-1.221,-23.743,-23.01
-0.488,-1.026,0.344,-2.93,-28.625,-28.809
-0.524,-0.982,0.367,2.686,-47.18,-40.222
-0.538,-0.921,0.4,4.578,-53.589,-47.302
-0.514,-0.826,0.4,-5.127,-44.373,-56.58
-0.56,-0.848,0.451,-5.005,-44.25,-62.866
-0.585,-0.805,0.478,-33.386,-18.066,-68.787
-0.566,-0.675,0.36,-66.101,5.676,-76.843
-0.684,-0.626,0.5,-14.954,-42.48,-75.806
-0.692,-0.62,0.442,-11.536,-35.339,-76.233
-0.749,-0.594,0.411,4.639,-33.63,-83.74
-0.787,-0.58,0.268,12.512,-33.142,-89.478
-0.92,-0.422,0.186,19.775,-38.818,-90.698
-0.921,-0.523,0.015,29.419,-51.392,-93.567
-0.887,-0.591,-0.119,13.367,-55.176,-92.896
-0.869,-0.555,-0.113,-1.465,-64.941,-92.773
-0.86,-0.529,-0.116,-7.935,-66.284,-94.421
-0.818,-0.449,-0.162,-40.894,-72.388,-104.309
-0.824,-0.412,-0.046,-52.979,-77.454,-103.516
-0.835,-0.377,0.078,-61.096,-77.148,-102.539
-0.801,-0.13,0.179,-102.722,-52.002,-103.821
-0.786,-0.053,0.186,-105.53,-48.95,-104.126
-0.767,-0.004,0.264,-98.45,-46.997,-97.778
-0.765,-0.019,0.154,-88.257,-44.25,-89.844
-0.762,-0.015,0.177,-65.002,-61.951,-84.473
-0.812,-0.158,0.283,-26.55,-68.298,-72.388
-0.878,-0.216,0.24,-25.696,-51.636,-62.805
-0.994,-0.136,0.178,-24.536,-50.049,-51.758
-1.029,-0.118,0.027,4.028,-51.697,-43.64
-0.899,0.038,-0.181,28.931,-48.889,-26.184
-0.907,0.027,-0.181,35.339,-52.368,-26.855
-0.932,0.079,-0.257,-16.846,-24.414,-37.231
-0.893,0.147,-0.191,-38.635,-20.203,-42.175
-0.939,0.044,-0.052,-62.866,7.263,-57.251
-1.038,-0.034,0.044,-61.157,30.518,-50.964
-1.113,-0.061,-0.204,-47.241,44.25,-34.973
-1.07,0.14,-0.348,-40.894,2.197,3.54
-0.92,0.249,-0.357,11.536,0.977,3.418
-0.943,0.294,0.04,36.804,-17.517,-1.282
-0.954,0.155,-0.097,57.251,-9.766,-2.747
-0.951,0.142,-0.087,55.42,-10.132,-0.916
-0.957,0.108,-0.234,35.156,-2.808,2.38
-0.952,0.094,-0.251,3.784,-4.944,-0.427
-0.92,0.138,-0.247,-23.315,6.104,-12.268
-0.934,0.165,-0.171,-26.55,6.042,-18.372
-0.935,0.2,-0.175,-26.367,5.371,-18.982
-0.941,0.219,-0.145,-23.682,4.028,-18.372
-0.948,0.221,-0.134,-21.973,3.784,-17.273
-0.969,0.214,-0.121,-12.817,0.916,-9.949
-0.954,0.21,-0.125,-6.836,-0.488,-4.639
-0.944,0.211,-0.153,-2.38,-1.831,-1.16
-0.949,0.192,-0.178,4.578,-3.967,0.854
-0.951,0.184,-0.201,12.634,-2.686,1.221
-0.971,0.195,-0.191,11.597,-3.723,-1.587
-0.909,0.188,-0.179,0.427,-0.488,-1.343
-0.94,0.203,-0.207,-8.057,2.808,-2.38
-0.936,0.204,-0.19,-6.714,3.662,-2.38
-0.934,0.215,-0.22,-7.629,-0.488,-2.808
-0.941,0.204,-0.189,-6.042,-3.174,-3.601
-0.945,0.203,-0.122,-0.122,-2.991,-3.54
-0.947,0.21,-0.164,1.16,-2.136,-0.549
-0.929,0.207,-0.202,3.235,-0.488,-0.183
-0.927,0.207,-0.207,2.869,-1.831,-0.305
-0.947,0.197,-0.195,1.16,-0.793,-0.916
-0.94,0.194,-0.188,-0.305,-0.183,-0.977
-0.943,0.197,-0.178,-1.648,1.709,-0.671
-0.943,0.202,-0.183,-2.808,2.136,-0.244
-0.93,0.218,-0.187,-2.686,0.671,0.366
-0.926,0.224,-0.191,-2.197,0.244,0.61
-0.93,0.231,-0.19,0.183,-0.61,0.793
-0.926,0.224,-0.194,4.089,-0.732,1.831
-0.937,0.209,-0.184,3.662,-1.16,1.709
-0.943,0.194,-0.191,3.357,-0.549,1.526
-0.933,0.193,-0.194,3.357,-1.038,1.648
-0.945,0.19,-0.179,-0.061,-0.854,0.732
-0.939,0.192,-0.191,-1.465,0.427,1.221
-0.94,0.197,-0.195,-0.732,0.183,1.343
-0.94,0.198,-0.191,-0.305,0.122,1.282
-0.938,0.204,-0.186,1.038,0.183,1.892
-0.938,0.202,-0.187,1.526,0.244,2.014
-0.936,0.193,-0.186,2.197,-0.122,2.319
-0.943,0.188,-0.189,2.93,-0.244,2.38
-0.942,0.186,-0.19,2.869,-0.305,2.258
-0.945,0.186,-0.185,2.197,-0.305,2.319
-0.943,0.188,-0.186,1.892,-0.061,2.197
-0.938,0.188,-0.195,0.916,0.61,1.831
-0.935,0.192,-0.197,1.16,0.122,1.343
-0.934,0.191,-0.191,1.038,0.0,1.404
-0.943,0.193,-0.187,0.793,0.549,1.404
-0.941,0.188,-0.182,0.916,0.183,1.282
-0.937,0.185,-0.184,0.977,0.305,1.648
-0.938,0.186,-0.191,1.221,-0.427,2.014

-0.969,-0.434,0.257,21.667,53.772,59.814
-0.973,-0.469,0.384,24.963,56.458,67.749
-0.944,-0.405,0.406,23.682,66.04,76.965
-0.917,-0.236,0.274,10.132,79.773,84.29
-0.883,-0.073,0.092,-4.517,90.332,87.463
-0.825,0.067,-0.044,-12.085,93.689,87.585
-0.746,0.162,0.07,54.504,81.421,72.449
-0.776,0.25,0.108,62.378,53.589,74.219
-0.816,-0.285,0.037,80.322,60.242,86.792
-0.772,-0.365,-0.024,90.759,52.551,101.257
-0.829,-0.364,0.321,81.055,40.955,109.802
-0.931,-0.316,0.128,78.674,71.96,108.887
-0.95,-0.258,0.079,80.505,72.876,107.971
-0.905,-0.141,0.034,54.993,72.693,103.699
-0.871,-0.274,0.043,59.937,62.134,101.685
-1.046,-0.411,0.191,43.152,53.589,110.352
-1.036,-0.463,0.305,30.945,64.575,112.305
-0.979,-0.402,0.283,8.118,78.857,94.727
-0.739,-0.441,0.331,28.076,69.214,98.633
-0.756,-0.566,0.353,32.349,66.589,96.436
-0.706,-0.68,0.239,22.766,70.068,91.187
-0.554,-0.809,0.194,15.625,48.767,98.328
-0.398,-0.851,0.316,23.315,20.63,96.13
-0.355,-0.917,0.344,22.949,19.104,94.238
-0.391,-0.954,0.307,3.296,23.438,93.75
-0.447,-0.711,0.324,10.315,15.747,92.773
-0.469,-0.766,0.324,21.179,10.925,88.684
-0.333,-1.282,0.474,24.109,9.338,69.336
-0.283,-1.113,0.478,-4.822,14.526,60.791
-0.306,-0.934,0.491,-11.78,14.404,52.551
-0.339,-0.959,0.43,5.127,7.69,39.917
-0.383,-1.095,0.407,12.329,4.7,28.564
-0.277,-1.168,0.38,2.075,1.099,14.709
-0.3,-1.091,0.342,-1.282,-3.906,5.005
-0.31,-1.096,0.359,0.122,-11.78,-6.897
-0.326,-1.131,0.379,-1.648,-16.357,-14.832
-0.335,-1.1,0.37,-3.601,-18.494,-18.982
-0.354,-1.066,0.358,1.526,-27.649,-29.663
-0.36,-1.062,0.377,-4.211,-26.611,-34.668
-0.343,-1.027,0.33,-26.245,-27.222,-43.64
-0.349,-0.975,0.374,-25.635,-31.86,-49.5
-0.357,-0.896,0.381,-23.865,-34.424,-53.101
-0.339,-0.892,0.379,-23.376,-35.4,-57.495
-0.354,-0.868,0.417,-23.56,-35.278,-62.378
-0.363,-0.846,0.454,-26.001,-33.691,-66.162
-0.372,-0.796,0.498,-27.1,-29.785,-72.266
-0.402,-0.748,0.453,-27.588,-27.039,-78.979
-0.53,-0.746,0.381,1.221,-33.691,-83.557
-0.668,-0.684,0.23,12.695,-36.56,-82.581
-0.703,-0.591,0.29,14.526,-39.124,-83.252
-0.758,-0.717,0.184,19.348,-36.316,-87.341
-0.825,-0.731,0.189,15.869,-39.246,-87.952
-0.864,-0.677,0.18,11.597,-39.978,-86.914
-0.927,-0.459,0.092,5.981,-45.349,-91.553
-0.943,-0.492,0.067,8.057,-56.641,-98.328
-0.999,-0.518,0.054,-11.169,-54.81,-102.051
-0.969,-0.38,0.057,-39.978,-52.429,-103.516
-0.958,-0.294,0.063,-55.603,-56.03,-109.436
-0.91,-0.201,0.042,-72.205,-56.213,-114.868
-0.845,-0.161,0.024,-77.026,-60.974,-108.826
-0.782,-0.111,0.011,-70.374,-67.871,-95.337
-0.768,-0.141,0.084,-58.35,-71.594,-89.722
-0.812,0.027,0.175,-50.476,-58.289,-84.839
-0.811,0.035,0.032,-52.246,-44.678,-86.548
-0.791,0.02,0.015,-49.622,-44.739,-83.679
-0.843,-0.206,0.157,-12.512,-56.519,-68.298
-1.016,-0.259,0.323,-19.287,-51.88,-51.453
-1.033,-0.095,0.159,-46.814,-29.175,-41.87
-0.901,0.214,-0.207,-35.278,-19.104,-44.861
-0.868,0.062,-0.183,-31.189,-50.11,-50.537
-0.913,0.078,-0.164,-37.781,-49.866,-49.011
-0.967,0.192,-0.1,-30.884,-7.996,-41.87
-1.046,0.099,-0.012,-42.419,-3.845,-40.955
-1.129,-0.003,0.069,-32.288,5.249,-34.485
-1.109,-0.043,-0.179,-19.897,17.029,-14.16
-1.064,0.067,-0.266,-15.503,7.019,-1.587
-1.019,0.223,-0.238,-12.268,-3.296,4.395
-0.887,0.297,-0.159,22.4,-7.751,-5.676
-0.954,0.203,-0.187,23.743,-10.803,-9.216
-0.982,0.101,-0.246,11.292,-6.714,-4.517
-0.98,0.105,-0.214,-20.325,1.77,-2.502
-0.956,0.148,-0.211,-28.625,6.897,-3.235
-0.914,0.244,-0.22,-24.841,7.812,-4.761
-0.916,0.255,-0.2,-21.79,5.615,-5.432
-0.924,0.257,-0.168,-5.92,0.854,-2.747
-0.941,0.277,-0.193,3.113,-2.747,-0.244
-0.908,0.268,-0.199,17.456,-7.507,5.615
-0.922,0.234,-0.214,18.433,-4.883,5.188
-0.927,0.159,-0.26,13.0,-1.465,2.625
-0.919,0.161,-0.261,10.376,-2.014,2.563
-0.923,0.178,-0.225,4.883,-3.296,-0.061
-0.938,0.188,-0.199,-1.831,-1.038,-1.038
-0.927,0.227,-0.218,-7.751,1.221,-1.282
-0.946,0.234,-0.192,-2.747,0.183,-0.793
-0.924,0.237,-0.204,6.47,-0.916,2.197
-0.925,0.23,-0.201,8.545,-1.709,2.38
-0.943,0.196,-0.209,11.108,-1.953,3.113
-0.945,0.191,-0.214,10.01,-2.014,2.93
-0.921,0.188,-0.219,3.052,-0.549,2.197
-0.927,0.189,-0.223,-0.183,0.916,1.099
-0.928,0.192,-0.225,-1.892,1.526,0.488
-0.932,0.206,-0.215,-4.578,2.441,-0.549
-0.931,0.209,-0.209,-4.639,2.502,-0.671
-0.936,0.216,-0.201,-2.686,1.038,0.488
-0.936,0.222,-0.203,-1.709,0.366,0.671
-0.931,0.224,-0.201,0.183,-0.183,1.099
-0.926,0.22,-0.198,1.343,0.0,1.77
-0.937,0.207,-0.21,3.357,-0.061,2.014
-0.94,0.2,-0.207,3.296,0.061,2.136
-0.933,0.198,-0.212,2.747,0.244,2.136
-0.932,0.198,-0.212,1.038,-0.61,1.77
-0.929,0.209,-0.203,0.488,0.977,0.793
-0.917,0.21,-0.218,0.244,1.465,1.038
-0.919,0.209,-0.21,0.671,0.671,0.977
-0.937,0.191,-0.202,1.038,0.061,0.732
-0.938,0.187,-0.199,1.343,-0.122,0.61
-0.942,0.184,-0.202,1.099,0.244,0.488
-0.938,0.187,-0.203,0.732,0.427,0.488
-0.93,0.198,-0.21,1.099,0.549,0.183

-0.908,-0.373,0.16,85.938,73.242,118.408
-0.875,-0.245,0.08,61.462,83.618,122.681
-0.904,-0.233,-0.021,49.805,85.388,120.056
-0.866,-0.318,-0.058,49.011,83.008,114.258
-0.883,-0.264,0.065,47.913,74.646,113.586
-0.942,-0.286,0.112,46.753,68.237,113.098
-0.968,-0.224,0.094,39.551,57.922,119.141
-0.856,-0.531,0.232,48.828,55.603,118.347
-0.865,-0.642,0.281,-8.606,66.467,104.431
-0.79,-0.5,0.354,-16.663,65.552,101.379
-0.664,-0.673,0.222,4.089,63.049,92.407
-0.705,-0.792,0.237,9.155,56.763,95.093
-0.416,-0.875,0.44,-1.77,43.579,70.435
-0.437,-0.849,0.407,-2.38,47.607,65.125
-0.532,-0.886,0.302,11.108,41.748,64.27
-0.612,-0.912,0.311,15.991,31.433,65.796
-0.545,-0.925,0.266,13.855,28.32,65.552
-0.361,-1.256,0.359,31.494,12.207,58.838
-0.414,-1.146,0.372,-2.441,11.841,46.631
-0.436,-1.051,0.373,-7.019,7.385,42.664
-0.314,-1.178,0.479,-0.244,-8.911,18.188
-0.339,-0.984,0.499,-10.681,-18.921,-2.563
-0.399,-1.057,0.437,-2.441,-26.978,-17.456
-0.433,-1.04,0.398,-0.793,-40.161,-29.724
-0.458,-0.984,0.377,-0.732,-47.607,-36.621
-0.489,-0.96,0.415,-2.93,-55.542,-53.528
-0.499,-0.932,0.455,-38.269,-43.335,-60.913
-0.501,-0.864,0.486,-49.011,-38.33,-61.707
-0.541,-0.702,0.543,-62.134,-29.846,-66.589
-0.494,-0.664,0.56,-23.804,-44.739,-81.421
-0.495,-0.636,0.559,-28.015,-39.124,-84.29
-0.546,-0.551,0.534,-26.184,-33.997,-84.412
-0.672,-0.523,0.431,1.892,-33.447,-85.022
-0.703,-0.599,0.331,17.883,-34.668,-88.867
-0.889,-0.497,0.246,22.644,-35.828,-90.637
-0.954,-0.501,0.068,20.325,-42.175,-95.215
-0.941,-0.468,0.025,-1.038,-48.096,-91.98
-0.892,-0.268,0.081,-57.739,-64.819,-94.727
-0.828,-0.158,0.138,-71.106,-61.462,-94.604
-0.826,-0.04,0.087,-59.143,-65.613,-81.421
-0.857,-0.044,0.147,-52.185,-74.341,-78.674
-0.868,-0.014,0.162,-46.265,-66.406,-70.618
-0.874,0.013,0.152,-6.226,-65.002,-59.998
-0.993,-0.073,0.046,4.333,-40.1,-37.842
-0.973,-0.025,0.032,0.122,-35.522,-37.72
-0.985,0.056,-0.071,-5.249,-22.766,-33.081
-0.947,0.089,-0.096,-6.836,-19.592,-34.851
-0.964,0.049,-0.097,-21.057,-23.682,-39.062
-0.984,-0.001,-0.138,-31.311,-13.733,-38.269
-0.963,0.098,-0.095,-40.283,-15.32,-31.921
-0.971,0.111,-0.106,-42.603,-10.193,-26.55
-1.041,0.076,-0.106,-37.109,9.216,-2.502
-0.918,0.256,-0.163,21.79,-0.977,13.428
-0.924,0.226,-0.185,31.921,-6.348,15.198
-0.925,0.127,-0.215,36.682,-11.719,13.245
-0.951,0.039,-0.198,23.438,-12.878,9.644
-0.928,0.062,-0.22,0.977,-3.296,2.197
-0.938,0.072,-0.232,-6.653,-1.709,-0.61
-0.91,0.21,-0.255,-35.461,-2.625,-10.986
-0.926,0.217,-0.228,-26.489,-9.644,-10.315
-0.931,0.215,-0.223,-13.062,-9.094,-8.423
-0.945,0.144,-0.225,-1.221,-10.864,-3.113
-0.942,0.128,-0.24,2.686,-7.385,-1.343
-0.962,0.075,-0.225,-3.479,-4.395,-3.174
-0.96,0.086,-0.226,-6.348,-4.089,-3.418
-0.955,0.132,-0.229,-12.695,-0.366,-4.944
-0.943,0.158,-0.246,-10.742,0.549,-3.784
-0.949,0.156,-0.262,-6.042,1.038,-2.563
-0.947,0.176,-0.244,-2.197,-0.366,-0.488
-0.945,0.172,-0.243,-1.038,-0.244,0.549
-0.932,0.168,-0.245,4.333,-0.549,1.892
-0.939,0.148,-0.241,8.179,0.244,1.343
-0.936,0.138,-0.258,3.967,0.183,0.732
-0.934,0.146,-0.242,2.747,-0.793,0.61
-0.936,0.144,-0.239,2.136,-0.366,0.366
-0.936,0.147,-0.249,2.075,1.587,-0.305
-0.93,0.156,-0.24,4.089,2.502,-1.16
-0.941,0.146,-0.242,5.92,2.38,-1.038
-0.942,0.149,-0.223,5.981,1.709,1.892
-0.933,0.156,-0.224,6.897,1.526,1.831
-0.93,0.161,-0.228,7.446,1.526,0.488
-0.937,0.161,-0.239,10.193,1.892,-0.671
-0.925,0.166,-0.234,7.812,1.282,-0.793
-0.927,0.17,-0.229,8.911,1.587,-1.099
-0.94,0.176,-0.205,13.672,3.174,-2.38
-0.952,0.158,-0.219,11.536,3.357,-2.136
-0.945,0.159,-0.213,9.033,1.587,-1.343
-0.953,0.147,-0.195,6.714,1.892,-1.038
-0.954,0.142,-0.203,6.348,2.38,-0.549
-0.945,0.156,-0.216,6.226,1.038,0.122
-0.944,0.155,-0.214,5.981,1.282,0.244
-0.938,0.161,-0.218,2.991,1.892,0.549
-0.937,0.175,-0.217,2.014,0.793,0.061
-0.937,0.177,-0.213,1.587,0.366,-0.244
-0.938,0.181,-0.217,1.892,0.244,-0.427
-0.937,0.172,-0.217,3.601,-0.244,-0.916
-0.948,0.16,-0.192,1.587,-0.122,-1.099
-0.949,0.151,-0.205,1.404,0.122,-1.16
-0.947,0.147,-0.21,1.282,-0.183,-1.16
-0.945,0.172,-0.21,1.709,0.061,-0.732
-0.938,0.171,-0.204,1.77,-0.549,-0.366
-0.945,0.164,-0.206,1.221,-0.549,-0.427
-0.942,0.169,-0.216,2.319,-0.61,-0.305
-0.945,0.168,-0.2,3.235,-1.16,-0.183
-0.943,0.159,-0.211,2.319,-0.488,0.183
-0.944,0.159,-0.204,1.77,-0.732,-0.061
-0.944,0.16,-0.204,1.16,-0.244,0.0
-0.945,0.166,-0.21,1.038,0.122,-0.427
-0.936,0.174,-0.223,-1.343,0.488,-0.793
-0.94,0.18,-0.21,-1.648,-0.488,-1.16
-0.939,0.169,-0.214,-2.197,0.488,-1.099
-0.938,0.174,-0.211,-2.441,0.061,-1.038
-0.938,0.178,-0.246,-2.625,0.732,-0.977
-0.932,0.184,-0.219,-2.808,0.366,-0.977
-0.928,0.183,-0.218,-2.808,0.305,-1.038
-0.933,0.186,-0.218,-3.052,0.122,-1.038
-0.935,0.184,-0.214,-2.808,0.244,-1.16
-0.935,0.187,-0.22,-2.808,0.793,-1.16
-0.939,0.181,-0.214,-2.869,0.854,-1.282

-0.945,-0.471,0.216,76.477,53.101,128.54
-0.951,-0.579,0.197,64.941,59.57,125.0
-0.938,-0.619,0.285,52.612,60.852,122.803
-0.918,-0.668,0.364,41.443,58.899,120.972
-0.888,-0.699,0.392,28.564,57.617,118.164
-0.841,-0.634,0.4,16.724,58.655,116.272
-0.69,-0.494,0.347,-7.812,75.867,101.807
-0.888,-0.591,0.199,-33.508,79.651,87.402
-0.575,-0.674,0.31,32.532,47.668,95.703
-0.6,-0.89,0.347,-11.353,37.903,94.849
-0.516,-0.929,0.362,-8.24,27.344,77.759
-0.38,-0.923,0.467,-3.296,15.076,73.12
-0.38,-0.938,0.511,-0.366,9.949,62.683
-0.335,-0.965,0.434,5.615,-2.014,48.462
-0.306,-0.969,0.463,8.484,-4.456,39.062
-0.331,-1.046,0.443,8.972,-7.629,27.832
-0.344,-1.021,0.46,2.808,-12.939,6.47
-0.387,-1.058,0.419,0.977,-16.968,-2.686
-0.461,-1.123,0.392,1.953,-24.231,-9.827
-0.5,-1.106,0.398,-2.625,-30.029,-17.395
-0.486,-1.007,0.385,-16.113,-40.833,-31.555
-0.517,-0.972,0.446,-20.203,-44.189,-36.011
-0.55,-0.916,0.485,-24.292,-44.861,-41.809
-0.56,-0.846,0.479,-27.466,-44.556,-45.349
-0.556,-0.794,0.518,-26.55,-44.006,-55.176
-0.656,-0.542,0.584,-22.583,-26.306,-65.796
-0.675,-0.521,0.587,-7.324,-24.353,-66.528
-0.578,-0.534,0.562,24.902,-27.527,-73.792
-0.594,-0.593,0.49,34.485,-25.757,-78.735
-0.641,-0.754,0.433,28.809,-21.545,-84.045
-0.716,-0.55,0.327,-9.949,-4.883,-97.534
-0.751,-0.533,0.23,-4.028,-13.184,-111.206
-0.882,-0.503,0.09,36.194,-39.612,-89.539
-0.842,-0.528,0.024,40.833,-47.729,-82.947
-0.852,-0.495,-0.003,31.677,-52.734,-83.801
-0.914,-0.468,0.005,24.17,-61.218,-88.501
-0.9,-0.481,0.061,-16.113,-65.674,-99.792
-0.854,-0.475,0.1,-26.978,-64.209,-100.037
-0.798,-0.319,0.218,-75.989,-51.636,-98.694
-0.799,-0.234,0.106,-95.398,-36.682,-97.351
-0.78,-0.157,0.072,-97.351,-33.813,-95.093
-0.783,-0.056,-0.069,-71.533,-52.429,-79.102
-0.826,-0.001,0.023,-48.828,-69.58,-71.533
-0.832,-0.154,0.094,-16.785,-75.012,-67.017
-0.85,-0.183,0.132,-17.578,-75.623,-60.791
-0.906,0.039,0.112,-35.95,-47.546,-53.955
-1.083,-0.286,0.366,-1.648,-67.932,-38.94
-1.157,-0.202,0.45,-0.488,-55.725,-33.875
-0.871,0.114,-0.206,-46.082,-2.319,-36.743
-0.877,0.097,-0.298,-39.062,-3.906,-37.476
-0.932,0.066,-0.227,-38.33,-27.832,-33.691
-0.914,0.325,-0.22,-32.776,-27.039,-27.893
-0.991,0.268,0.029,-12.512,-20.264,-35.034
-1.011,-0.029,-0.074,-6.409,-12.329,-8.118
-1.03,0.038,-0.152,-19.165,-5.31,-0.305
-0.97,0.194,-0.168,-12.512,1.465,0.671
-0.938,0.177,-0.215,-2.747,1.038,1.648
-0.935,0.158,-0.201,-0.122,-5.188,1.038
-0.945,0.155,-0.233,2.625,-2.869,1.526
-0.927,0.158,-0.201,0.427,-2.808,-0.61
-0.93,0.111,-0.225,-9.949,-0.977,-4.211
-0.948,0.133,-0.201,-16.968,-0.427,-7.324
-0.93,0.142,-0.245,-21.484,3.418,-7.141
-0.935,0.2,-0.198,-17.029,-3.235,-9.46
-0.94,0.197,-0.178,-15.747,-3.113,-9.888
-0.948,0.2,-0.192,-11.475,-1.831,-9.583
-0.939,0.201,-0.199,-3.479,-2.502,-9.094
-0.935,0.192,-0.199,7.019,-3.296,-4.395
-0.94,0.192,-0.199,12.939,-2.38,-4.578
-0.956,0.137,-0.227,16.174,3.479,-3.967
-0.958,0.141,-0.25,14.771,4.089,-3.235
-0.961,0.133,-0.201,5.371,0.488,-1.465
-0.945,0.174,-0.193,-1.038,-0.61,-0.977
-0.938,0.179,-0.191,-0.427,-0.366,-1.099
-0.943,0.178,-0.196,1.587,-0.061,-1.404
-0.943,0.183,-0.199,1.343,-0.244,-1.465
-0.937,0.189,-0.217,-1.831,-1.099,-1.404
-0.936,0.177,-0.196,2.625,-3.235,-1.282
-0.934,0.18,-0.2,3.418,-2.258,-1.282
-0.934,0.193,-0.224,3.845,-2.258,-1.587
-0.938,0.189,-0.203,2.93,-2.38,-1.892
-0.933,0.181,-0.23,1.099,-0.549,-1.526
-0.929,0.184,-0.222,0.244,-2.441,-1.526
-0.936,0.194,-0.221,0.427,-2.075,-1.77
-0.935,0.186,-0.211,1.099,-1.343,-1.831
-0.932,0.184,-0.224,2.38,-1.16,-1.587
-0.967,0.177,-0.208,3.601,-3.113,-1.404
-0.944,0.176,-0.201,2.869,-2.686,-1.465
-0.943,0.176,-0.207,3.174,-2.319,-1.343
-0.949,0.163,-0.203,2.747,-1.587,-1.404
-0.952,0.159,-0.208,1.831,-1.404,-1.404
-0.944,0.179,-0.219,-1.343,-0.916,-1.16
-0.938,0.186,-0.222,-1.709,-0.488,-1.282
-0.934,0.187,-0.225,-0.488,0.061,-1.099
-0.937,0.194,-0.223,0.916,-0.305,-0.854
-0.937,0.193,-0.212,0.61,0.366,-0.488
-0.938,0.193,-0.214,0.305,0.61,-0.305
-0.927,0.198,-0.224,0.549,0.61,0.0
-0.924,0.203,-0.226,0.366,0.916,0.0
-0.927,0.202,-0.234,0.305,1.16,-0.549
-0.926,0.203,-0.234,-0.183,1.038,-0.549
-0.925,0.203,-0.235,-0.671,1.099,-0.427
-0.928,0.199,-0.217,-1.282,0.854,-0.549
-0.933,0.2,-0.221,-1.526,1.099,-0.427
-0.932,0.199,-0.214,-0.793,0.916,-0.854
-0.933,0.199,-0.215,0.061,0.183,-0.977
-0.933,0.199,-0.219,-0.671,0.427,-0.977
-0.932,0.199,-0.224,-0.427,0.244,-0.916
-0.929,0.2,-0.218,-0.061,0.183,-0.916
-0.933,0.196,-0.225,0.183,0.671,-1.038
-0.934,0.197,-0.224,0.183,0.488,-1.16
-0.93,0.194,-0.218,-0.61,0.427,-1.038
-0.936,0.2,-0.213,-0.549,0.244,-1.038
-0.934,0.197,-0.208,-0.244,0.61,-0.977
-0.932,0.2,-0.218,-0.061,0.671,-0.671
-0.936,0.197,-0.211,-0.244,0.244,-0.671
-0.932,0.193,-0.221,0.183,0.916,-0.671
-0.931,0.197,-0.222,-0.183,0.488,-0.61
-0.929,0.205,-0.219,-0.488,0.549,-0.854

-0.963,0.249,-0.382,52.917,47.485,43.518
-0.97,0.237,-0.317,47.119,36.987,40.161
-0.973,0.217,-0.19,37.781,25.879,36.926
-0.991,0.16,-0.078,33.203,20.325,35.767
-1.014,0.097,-0.067,33.142,22.827,36.743
-0.955,-0.205,0.183,24.048,25.635,41.321
-0.796,-0.204,0.262,-29.419,74.28,73.73
-0.777,-0.069,0.076,-30.334,78.43,82.825
-0.758,-0.106,0.122,14.648,78.369,86.121
-0.847,-0.245,0.166,68.42,77.209,107.91
-0.719,-0.26,0.001,88.623,69.946,114.685
-0.752,-0.48,0.214,112.122,54.199,127.991
-0.837,-0.588,0.354,82.275,48.035,127.563
-0.959,-0.601,0.3,-1.343,82.703,112.549
-0.834,-0.465,0.411,-25.391,92.224,96.863
-0.511,-0.627,0.348,11.108,71.472,93.933
-0.549,-0.88,0.229,12.329,68.298,93.079
-0.752,-0.759,0.263,2.502,54.871,92.651
-0.518,-0.965,0.44,19.409,45.715,87.524
-0.474,-1.014,0.434,13.672,45.166,85.571
-0.499,-0.961,0.399,-0.854,43.396,73.242
-0.415,-1.155,0.372,6.287,29.297,67.444
-0.352,-1.144,0.383,6.226,23.987,66.162
-0.271,-1.085,0.431,-1.282,11.536,55.359
-0.296,-1.061,0.472,-4.822,3.967,44.8
-0.362,-1.028,0.496,-9.338,-0.122,31.372
-0.368,-1.021,0.513,-8.545,-5.493,22.583
-0.338,-1.054,0.517,-7.446,-9.705,17.09
-0.33,-1.022,0.492,-10.254,-24.841,-6.226
-0.329,-1.009,0.475,-10.315,-27.466,-11.353
-0.348,-1.028,0.468,-13.062,-35.889,-23.499
-0.364,-0.98,0.461,-17.456,-41.382,-34.119
-0.415,-0.91,0.476,-22.949,-44.922,-41.809
-0.402,-0.858,0.504,-23.499,-46.143,-46.936
-0.394,-0.843,0.507,-22.522,-46.997,-52.368
-0.427,-0.812,0.539,-24.719,-46.387,-58.167
-0.436,-0.751,0.568,-26.733,-45.349,-62.012
-0.473,-0.646,0.611,-23.743,-39.917,-72.083
-0.499,-0.629,0.612,-16.113,-34.729,-79.651
-0.538,-0.596,0.572,-11.78,-30.64,-83.374
-0.566,-0.622,0.514,-7.69,-27.771,-86.426
-0.607,-0.599,0.468,7.751,-26.733,-92.896
-0.621,-0.581,0.447,10.803,-26.611,-94.727
-0.73,-0.618,0.33,18.982,-29.114,-98.755
-0.751,-0.623,0.187,24.902,-39.001,-102.112
-0.904,-0.524,0.24,27.1,-44.983,-97.046
-0.902,-0.461,0.117,33.02,-42.175,-96.985
-0.979,-0.505,0.07,7.385,-51.331,-100.037
-0.965,-0.362,0.113,-27.71,-58.411,-103.088
-0.861,-0.223,0.177,-45.349,-42.603,-98.511
-0.835,-0.166,0.045,-48.34,-40.771,-93.262
-0.894,-0.084,0.047,-31.067,-57.922,-77.576
-0.87,-0.056,0.054,-36.072,-62.988,-75.684
-0.818,-0.034,0.097,-35.645,-66.528,-70.374
-0.893,0.142,0.115,-29.175,-70.74,-60.852
-0.879,0.12,0.078,-19.958,-66.65,-62.012
-0.923,0.028,0.143,-36.072,-52.246,-57.922
-1.021,-0.023,0.142,-42.542,-48.767,-54.504
-0.907,0.158,-0.208,-33.569,-25.269,-42.908
-0.891,0.196,-0.242,-28.442,-28.32,-43.274
-0.86,0.138,-0.198,-11.23,-26.917,-47.974
-0.95,0.082,-0.279,-14.648,-11.536,-40.833
-1.091,-0.015,-0.146,-38.33,3.967,-19.592
-1.11,0.032,-0.061,-37.231,6.531,-9.399
-1.073,0.022,-0.006,-34.79,5.615,-0.488
-0.957,0.257,-0.116,-11.536,0.061,10.498
-0.933,0.326,-0.093,8.728,-7.69,8.118
-0.897,0.246,-0.311,27.405,-2.563,6.592
-0.887,0.203,-0.351,20.691,-2.441,5.432
-0.896,0.216,-0.349,-8.484,1.892,-2.014
-0.914,0.219,-0.223,-13.611,-2.808,-10.01
-0.93,0.202,-0.167,-17.456,0.793,-11.292
-0.962,0.169,-0.151,-18.86,-1.343,-11.169
-0.98,0.142,-0.109,-18.25,-3.235,-7.812
-0.959,0.17,-0.221,-13.55,-1.16,1.282
-0.933,0.229,-0.235,6.104,-0.854,5.737
-0.922,0.233,-0.26,14.954,-0.305,5.432
-0.927,0.21,-0.218,24.536,-2.686,4.395
-0.929,0.184,-0.193,20.691,-3.418,1.709
-0.931,0.161,-0.22,10.376,-3.601,0.488
-0.949,0.141,-0.204,1.343,-3.723,-1.16
-0.935,0.151,-0.262,-10.193,1.465,-1.221
-0.947,0.155,-0.211,-12.817,1.282,-1.892
-0.952,0.168,-0.211,-10.62,3.662,-1.221
-0.949,0.202,-0.203,-3.601,2.075,0.366
-0.942,0.205,-0.201,5.493,0.916,2.747
-0.937,0.192,-0.195,9.338,0.061,4.089
-0.924,0.195,-0.21,8.911,0.0,3.235
-0.919,0.185,-0.238,5.066,2.014,1.892
-0.937,0.168,-0.223,-3.967,1.465,-1.099
-0.938,0.169,-0.224,-6.165,2.258,-1.343
-0.935,0.189,-0.217,-9.766,2.38,-1.099
-0.934,0.193,-0.212,-9.338,2.258,-0.977
-0.942,0.21,-0.202,-4.761,1.343,-0.061
-0.935,0.212,-0.205,-0.61,0.244,1.038
-0.933,0.212,-0.205,1.648,-0.305,1.587
-0.94,0.191,-0.203,6.042,-1.038,2.38
-0.943,0.178,-0.204,6.531,-0.854,2.441
-0.932,0.167,-0.216,3.357,0.0,2.258
-0.933,0.166,-0.215,2.258,0.366,1.77
-0.938,0.175,-0.223,0.0,1.343,0.916
-0.924,0.191,-0.229,-2.197,1.404,0.122
-0.923,0.199,-0.229,-2.319,0.61,-0.061
-0.937,0.191,-0.195,-0.061,3.235,-0.671
-0.933,0.194,-0.22,0.671,4.639,-0.427
-0.931,0.2,-0.23,0.732,1.526,0.122
-0.937,0.183,-0.216,1.831,-1.038,0.793
-0.942,0.168,-0.21,3.052,-0.61,0.305
-0.95,0.158,-0.204,2.625,0.488,0.977
-0.95,0.161,-0.201,1.953,0.427,0.916
-0.945,0.164,-0.196,0.366,0.61,1.16
-0.937,0.179,-0.216,-0.244,0.366,0.183
-0.937,0.187,-0.212,0.488,1.038,-0.122
-0.937,0.187,-0.206,0.732,0.916,0.0
-0.937,0.185,-0.207,0.854,0.732,-0.061
-0.938,0.182,-0.204,1.099,0.183,0.488
-0.936,0.177,-0.205,2.075,-0.366,0.122
-0.938,0.181,-0.213,1.465,0.366,-0.366
-0.938,0.181,-0.203,1.038,0.305,-0.427

-1.059,-0.323,0.504,82.336,81.055,61.34
-1.091,-0.535,0.486,106.14,107.849,72.327
-1.081,-0.786,0.22,119.446,130.92,87.463
-1.076,-0.878,-0.074,106.079,139.648,105.469
-0.935,-0.305,-0.15,82.397,130.31,123.657
-0.738,0.72,-0.144,19.47,100.769,91.919
-0.667,0.881,-0.278,28.748,89.05,83.862
-1.013,-0.418,0.106,107.239,49.133,78.613
-1.011,-0.474,0.281,70.251,46.143,107.788
-0.908,-0.433,0.174,30.457,72.815,106.689
-0.912,-0.005,0.285,-2.869,89.172,92.834
-0.893,0.057,0.154,-0.977,104.187,88.867
-0.782,-0.082,0.106,25.024,93.628,83.801
-0.696,-0.183,0.001,80.017,73.486,98.45
-0.821,-0.488,0.066,84.778,62.439,106.201
-0.958,-0.62,0.169,50.049,53.162,112.976
-0.917,-0.647,0.176,41.87,51.636,111.45
-0.756,-0.525,0.285,24.048,54.138,110.901
-0.727,-0.415,0.422,18.799,59.326,115.356
-0.705,-0.501,0.327,23.438,53.406,113.098
-0.714,-0.773,0.308,-6.104,59.57,97.046
-0.564,-0.475,0.318,-3.906,61.279,88.257
-0.545,-0.56,0.309,16.174,59.143,92.102
-0.752,-0.851,0.287,49.683,43.823,99.854
-0.78,-1.003,0.423,41.077,33.325,99.06
-0.587,-1.029,0.333,7.08,36.133,90.82
-0.433,-1.02,0.383,-22.217,36.682,79.407
-0.469,-0.902,0.471,15.198,25.085,71.228
-0.432,-0.969,0.495,19.897,20.447,67.871
-0.462,-0.896,0.529,-9.216,22.4,53.406
-0.193,-0.888,0.583,-4.944,20.996,47.485
-0.238,-0.987,0.574,-2.136,14.954,30.762
-0.237,-1.013,0.476,-8.85,-17.273,-11.169
-0.285,-0.948,0.498,-9.888,-36.682,-38.025
-0.345,-0.881,0.506,-18.494,-40.039,-50.903
-0.387,-0.877,0.52,-20.874,-42.114,-61.89
-0.396,-0.782,0.566,-24.841,-42.053,-70.557
-0.488,-0.66,0.577,-21.851,-40.222,-75.073
-0.508,-0.653,0.599,-12.756,-39.612,-79.346
-0.509,-0.622,0.594,-9.644,-37.72,-82.458
-0.546,-0.61,0.578,-2.136,-35.522,-84.778
-0.597,-0.591,0.498,7.629,-32.349,-88.501
-0.688,-0.627,0.414,15.198,-33.936,-92.651
-0.714,-0.635,0.388,16.907,-34.241,-93.018
-0.787,-0.574,0.297,20.63,-34.851,-95.032
-0.892,-0.541,0.274,25.696,-40.344,-94.666
-0.901,-0.478,0.089,23.804,-41.504,-93.445
-0.93,-0.519,0.104,0.0,-50.354,-91.553
-0.997,-0.429,0.095,-6.714,-53.772,-96.802
-0.951,-0.282,0.106,-31.494,-45.532,-97.29
-0.906,-0.239,0.093,-40.222,-52.429,-99.792
-0.913,-0.148,0.07,-52.795,-56.335,-93.811
-0.902,-0.013,0.128,-51.208,-64.941,-88.196
-0.841,0.012,-0.07,-47.119,-68.054,-86.792
-0.855,0.009,-0.018,-45.532,-76.294,-86.975
-0.865,0.009,0.12,-30.396,-83.435,-77.698
-0.825,0.022,-0.009,-27.649,-75.5,-74.463
-0.766,0.046,0.168,-43.579,-88.196,-76.355
-1.009,-0.122,0.292,-47.729,-42.419,-55.176
-1.019,-0.133,0.117,-48.828,-30.273,-49.805
-0.917,0.115,-0.084,-28.015,-41.26,-37.354
-0.889,0.111,-0.142,-23.682,-41.992,-34.485
-1.107,-0.039,-0.141,19.836,4.456,-31.494
-1.116,-0.192,-0.162,-17.151,6.531,-4.7
-0.998,0.101,-0.189,-29.907,-1.16,11.353
-0.921,0.305,-0.19,-12.817,2.563,10.681
-0.91,0.258,-0.118,24.048,-2.319,-1.404
-0.92,0.224,-0.196,20.874,-1.953,-1.831
-0.939,0.178,-0.258,-16.296,0.122,-9.888
-0.943,0.194,-0.237,-17.334,0.671,-10.803
-0.965,0.16,-0.165,-19.958,-2.075,-5.676
-0.959,0.174,-0.165,-12.451,-3.601,-2.747
-0.941,0.2,-0.225,0.671,-2.991,0.122
-0.946,0.185,-0.198,10.254,-1.648,1.526
-0.936,0.182,-0.241,10.254,4.639,3.723
-0.92,0.165,-0.224,6.531,3.174,3.54
-0.925,0.183,-0.218,-15.442,1.953,-0.61
-0.935,0.207,-0.237,-8.728,2.808,-1.892
-0.932,0.209,-0.225,-10.376,2.075,-2.869
-0.928,0.196,-0.217,-10.62,2.93,-1.892
-0.928,0.203,-0.237,-9.399,3.235,-1.343
-0.934,0.215,-0.218,2.258,-1.648,-1.038
-0.938,0.175,-0.214,8.423,-1.709,-0.671
-0.95,0.152,-0.192,4.883,-0.977,-0.366
-0.944,0.156,-0.205,3.784,0.183,-0.061
-0.934,0.197,-0.198,-4.028,0.549,-2.808
-0.936,0.196,-0.197,-3.235,1.038,-2.502
-0.943,0.197,-0.207,-2.441,0.671,-1.465
-0.943,0.195,-0.2,-2.136,-0.183,-1.282
-0.943,0.178,-0.206,1.282,1.465,-0.488
-0.942,0.178,-0.206,1.282,1.709,-0.549
-0.938,0.173,-0.209,-2.93,1.099,-0.061
-0.941,0.177,-0.207,-5.127,0.61,0.0
-0.929,0.205,-0.219,-5.798,0.183,0.427
-0.926,0.206,-0.213,-5.188,0.0,0.244
-0.927,0.207,-0.229,-1.648,1.343,-0.488
-0.933,0.204,-0.219,-0.244,0.183,-0.671
-0.934,0.188,-0.224,1.648,1.892,0.122
-0.931,0.2,-0.219,-0.793,0.122,0.427
-0.933,0.199,-0.217,-1.038,-0.183,0.366
-0.937,0.188,-0.208,-0.183,-1.038,-0.244
-0.938,0.186,-0.209,0.244,-0.61,0.0
-0.936,0.188,-0.205,0.0,0.122,0.183
-0.935,0.19,-0.21,-0.061,0.732,0.244
-0.933,0.191,-0.217,-0.305,0.366,0.488
-0.934,0.193,-0.212,0.183,-0.061,0.366
-0.935,0.19,-0.204,0.488,0.122,-0.061
-0.934,0.189,-0.215,-0.061,0.244,-0.427
-0.936,0.185,-0.207,-0.732,0.366,-0.427
-0.934,0.187,-0.209,-1.099,0.61,-0.305
-0.937,0.188,-0.211,-1.465,0.549,-0.488
-0.937,0.188,-0.208,-1.648,0.549,-0.61
-0.941,0.186,-0.208,-1.221,0.671,-0.366
-0.937,0.186,-0.211,-1.221,0.427,-0.244
-0.934,0.193,-0.213,-0.183,0.244,0.366
-0.934,0.195,-0.215,0.183,0.122,0.366
-0.934,0.193,-0.213,0.305,-0.183,0.122
-0.937,0.187,-0.211,-0.366,0.244,0.488
-0.938,0.19,-0.214,-0.366,0.305,0.61

-0.886,-0.541,0.355,66.162,40.405,118.774
-0.929,-0.63,0.284,55.359,49.316,118.164
-0.958,-0.691,0.339,37.659,52.979,116.028
-0.982,-0.655,0.479,19.287,51.453,112.976
-0.971,-0.612,0.518,-3.662,58.838,108.093
-0.929,-0.593,0.435,-52.307,82.825,94.666
-0.795,-0.364,0.405,-61.462,75.684,81.421
-0.715,-0.306,0.47,-51.941,77.148,77.637
-0.697,-0.747,0.34,59.021,49.255,91.431
-0.622,-1.017,0.286,52.612,43.274,93.994
-0.609,-1.171,0.239,-1.892,33.264,76.965
-0.558,-1.024,0.315,-11.658,22.766,72.144
-0.484,-1.031,0.317,-10.254,19.653,68.542
-0.505,-1.006,0.42,-9.827,-0.732,55.176
-0.59,-0.942,0.518,-0.854,-12.756,52.673
-0.603,-0.951,0.542,0.305,-16.052,47.913
-0.589,-0.925,0.655,-10.559,-19.226,26.672
-0.548,-0.913,0.726,-12.451,-19.653,0.671
-0.562,-0.791,0.748,-6.409,-17.395,-1.831
-0.523,-0.895,0.606,0.122,-18.494,-19.775
-0.513,-0.897,0.585,-1.099,-18.921,-23.926
-0.52,-0.927,0.489,-8.179,-24.048,-36.682
-0.53,-0.885,0.453,-16.235,-27.527,-41.321
-0.516,-0.855,0.437,-20.142,-28.381,-43.762
-0.514,-0.799,0.46,-25.269,-35.4,-52.917
-0.544,-0.731,0.489,-23.315,-37.231,-54.443
-0.547,-0.704,0.5,-21.729,-37.598,-55.42
-0.548,-0.649,0.571,-13.611,-39.001,-62.317
-0.568,-0.62,0.61,-8.972,-39.124,-66.284
-0.621,-0.573,0.563,-2.319,-34.424,-75.073
-0.678,-0.543,0.519,-0.427,-28.748,-81.848
-0.724,-0.51,0.455,7.507,-29.846,-85.754
-0.741,-0.506,0.423,10.315,-29.785,-88.074
-0.798,-0.485,0.38,21.423,-28.198,-89.661
-0.83,-0.521,0.181,30.518,-31.433,-95.886
-0.896,-0.548,0.132,37.842,-48.706,-93.262
-0.85,-0.622,0.046,34.302,-57.983,-95.581
-0.859,-0.606,-0.03,21.301,-59.57,-94.055
-0.881,-0.592,-0.038,5.859,-65.308,-96.863
-0.997,-0.401,0.043,-25.269,-70.007,-96.497
-0.952,-0.302,0.076,-48.767,-57.617,-104.736
-0.857,-0.292,0.046,-54.932,-55.786,-105.896
-0.775,-0.275,0.056,-66.162,-65.43,-100.952
-0.858,-0.047,0.04,-64.087,-70.251,-87.769
-0.865,0.045,0.138,-63.049,-73.242,-84.9
-0.778,0.109,0.14,-31.738,-70.374,-75.623
-0.822,0.093,0.116,-19.958,-79.956,-79.956
-0.857,-0.296,0.036,3.906,-82.581,-54.321
-0.984,-0.186,0.384,-9.888,-69.092,-48.462
-1.017,-0.199,0.304,-28.564,-51.514,-49.011
-1.026,-0.098,0.04,-45.837,-18.738,-36.682
-0.941,0.001,-0.241,-33.569,-34.363,-34.973
-0.949,-0.002,-0.157,-34.668,-40.283,-35.339
-0.884,0.345,-0.31,-22.034,-15.869,-33.691
-0.989,0.137,-0.094,7.507,-11.414,-20.996
-1.032,0.083,-0.114,2.625,-5.371,-9.705
-0.987,0.085,-0.135,4.395,-13.672,-2.075
-0.94,0.104,-0.242,1.099,-2.991,-2.93
-0.937,0.179,-0.251,-4.211,3.418,-2.563
-0.915,0.255,-0.197,-10.559,1.526,-2.441
-0.926,0.235,-0.199,-6.653,-2.075,-1.526
-0.931,0.225,-0.193,-4.761,-2.991,-1.587
-0.94,0.183,-0.208,-2.319,-1.709,-1.953
-0.942,0.166,-0.213,-2.441,-0.916,-2.258
-0.949,0.152,-0.226,-3.784,0.427,-1.404
-0.94,0.199,-0.207,-7.019,-0.732,-1.282
-0.915,0.246,-0.24,-7.263,0.854,-1.343
-0.919,0.224,-0.246,-3.235,-1.648,-1.282
-0.925,0.212,-0.239,-2.625,-2.502,-1.343
-0.935,0.181,-0.217,-1.892,-2.93,-1.343
-0.949,0.167,-0.218,-2.197,-1.526,-0.549
-0.951,0.167,-0.208,-2.319,-1.282,-0.488
-0.941,0.189,-0.211,-2.319,0.305,0.366
-0.926,0.207,-0.226,-2.38,-0.549,-0.244
-0.924,0.215,-0.245,-3.052,-0.549,-0.305
-0.92,0.203,-0.238,-3.052,-0.549,-0.244
-0.925,0.2,-0.24,-2.747,-0.305,-0.366
-0.934,0.188,-0.236,-2.686,-0.183,-0.427
-0.936,0.189,-0.228,-2.869,-0.488,-0.244
-0.938,0.185,-0.221,-2.686,-0.61,-0.061
-0.939,0.177,-0.223,-1.282,0.427,0.793
-0.937,0.183,-0.217,-0.977,0.061,1.099
-0.93,0.196,-0.231,-1.16,0.549,0.793
-0.926,0.201,-0.234,-1.587,0.61,0.61
-0.93,0.193,-0.239,-2.075,0.244,-0.183
-0.933,0.188,-0.231,-2.686,-0.183,-0.122
-0.93,0.194,-0.23,-1.648,-0.793,-0.244
-0.93,0.192,-0.227,-1.038,-0.854,-0.244
-0.934,0.182,-0.229,0.793,-0.427,0.061
-0.935,0.184,-0.23,0.793,-0.488,0.244
-0.93,0.188,-0.232,1.038,-0.916,0.61
-0.937,0.169,-0.234,2.625,-0.977,0.244
-0.935,0.164,-0.236,2.319,-0.366,0.366
-0.942,0.166,-0.233,0.732,0.122,0.427
-0.939,0.168,-0.227,0.0,0.183,0.488
-0.931,0.175,-0.228,-0.977,1.038,0.854
-0.935,0.184,-0.227,-0.061,0.854,0.244
-0.931,0.187,-0.227,0.488,0.0,0.305
-0.934,0.18,-0.231,0.732,0.122,0.366
-0.934,0.176,-0.236,1.099,0.488,0.488
-0.935,0.172,-0.228,0.793,-0.427,0.244
-0.932,0.176,-0.227,-0.183,-0.061,-0.122
-0.938,0.178,-0.226,-0.183,0.183,-0.366
-0.938,0.173,-0.226,0.183,0.427,-0.61
-0.938,0.173,-0.224,0.0,0.427,-0.488
-0.938,0.179,-0.223,-0.61,0.122,-0.122
-0.932,0.183,-0.232,0.793,0.183,-0.366
-0.931,0.179,-0.226,0.61,0.122,-0.488
-0.932,0.181,-0.232,0.427,0.244,-0.427
-0.929,0.185,-0.227,0.61,0.061,-0.916
-0.936,0.179,-0.223,0.061,0.122,-0.977
-0.935,0.179,-0.225,-0.366,0.366,-0.916
-0.933,0.183,-0.235,-0.916,0.244,-0.977
-0.933,0.185,-0.221,-0.977,-0.366,-1.16
-0.934,0.181,-0.226,-0.549,0.061,-1.099
-0.932,0.183,-0.234,0.0,0.427,-1.16
-0.934,0.187,-0.226,0.488,-0.305,-1.221
-0.931,0.188,-0.226,0.427,-0.183,-1.099
-0.932,0.186,-0.233,0.671,-0.183,-1.099

-0.922,0.325,-0.233,14.099,4.517,0.305
-0.914,0.28,-0.25,20.264,5.31,0.488
-0.918,0.234,-0.27,27.039,4.822,2.502
-0.936,0.204,-0.273,33.203,3.296,6.042
-0.953,0.194,-0.25,36.804,1.404,9.888
-0.97,0.192,-0.202,37.903,0.244,13.55
-0.976,0.193,-0.13,36.255,6.531,21.729
-0.975,0.192,-0.124,34.241,11.353,24.902
-0.973,0.144,-0.144,29.114,13.367,25.818
-0.997,0.106,-0.177,18.25,10.498,30.029
-0.993,0.092,-0.135,12.512,6.47,32.654
-0.982,0.087,-0.067,2.319,11.902,37.292
-1.029,-0.0,-0.013,5.493,27.832,38.696
-1.192,-0.346,0.405,17.212,61.584,57.373
-0.726,0.607,0.204,-17.273,85.632,118.225
-0.772,0.004,0.524,-42.969,103.027,68.054
-0.792,-0.18,0.274,-8.85,124.939,68.726
-0.747,0.242,0.178,-15.015,106.14,83.557
-0.647,0.351,0.21,4.578,97.595,76.599
-0.629,0.238,-0.157,62.988,105.469,81.116
-0.915,-0.346,-0.236,115.356,66.162,111.755
-0.852,-0.353,-0.152,98.755,47.546,118.958
-0.943,-0.445,-0.034,71.472,57.068,128.601
-1.052,-0.38,0.186,25.574,57.983,128.174
-1.015,-0.469,0.284,10.071,55.786,113.77
-1.058,-0.384,0.456,-23.071,72.998,107.788
-0.807,-0.346,0.487,-12.878,80.139,87.646
-0.748,-0.688,0.372,43.274,56.946,85.571
-0.63,-0.792,0.311,-29.724,37.903,68.42
-0.614,-0.874,0.277,-15.625,33.325,63.782
-0.553,-0.846,0.487,-4.028,2.869,66.528
-0.487,-0.881,0.485,-1.953,-0.366,56.763
-0.331,-0.972,0.553,-3.296,-2.563,48.645
-0.358,-0.874,0.617,-5.981,-7.568,33.264
-0.389,-0.907,0.651,-4.333,-12.939,15.442
-0.381,-0.878,0.647,-5.371,-13.55,9.766
-0.424,-0.966,0.38,-4.089,-25.513,-32.41
-0.418,-0.968,0.358,-5.737,-27.771,-35.4
-0.444,-0.936,0.394,-15.564,-37.781,-42.786
-0.492,-0.864,0.433,-20.63,-40.1,-46.509
-0.539,-0.762,0.514,-21.912,-42.725,-53.711
-0.553,-0.697,0.513,-18.555,-39.551,-62.5
-0.619,-0.681,0.534,-15.137,-38.025,-67.81
-0.635,-0.637,0.52,-12.207,-38.269,-68.054
-0.647,-0.672,0.467,-6.042,-35.706,-80.994
-0.747,-0.584,0.375,-4.7,-38.574,-87.402
-0.96,-0.405,0.243,4.272,-40.405,-92.041
-1.003,-0.533,0.323,24.536,-46.509,-92.651
-0.899,-0.447,0.157,26.672,-49.988,-84.961
-0.929,-0.382,0.106,-26.611,-56.702,-101.501
-0.833,-0.276,0.056,-49.805,-57.129,-95.215
-0.827,-0.135,0.065,-63.11,-53.711,-92.041
-0.781,-0.113,0.006,-58.655,-68.054,-85.693
-0.923,0.031,0.137,-19.043,-100.647,-69.092
-0.802,-0.009,0.097,-18.127,-78.918,-73.059
-1.007,-0.106,0.338,-29.846,-68.909,-59.631
-1.047,-0.117,0.285,-47.913,-48.218,-60.547
-0.88,0.125,-0.333,-17.273,-44.495,-34.973
-0.928,0.135,-0.244,-13.916,-41.931,-44.128
-1.002,0.083,-0.189,-28.809,-7.019,-28.076
-1.001,0.09,-0.02,-33.325,11.536,-16.357
-0.983,0.218,-0.184,-10.437,-5.676,-7.446
-0.946,0.237,-0.205,4.517,-4.089,-2.869
-0.926,0.246,-0.282,31.555,-2.563,4.15
-0.909,0.207,-0.319,38.086,-2.136,2.93
-0.902,0.106,-0.39,23.071,-1.404,-1.587
-0.988,0.13,-0.153,-16.235,-3.967,-9.399
-1.001,0.138,-0.139,-20.081,-2.258,-7.324
-0.966,0.151,-0.208,-17.883,1.648,-3.113
-0.949,0.173,-0.247,-15.686,2.014,-1.404
-0.912,0.224,-0.28,7.263,2.197,1.77
-0.919,0.177,-0.25,15.808,0.793,2.38
-0.919,0.171,-0.245,14.709,-0.061,2.502
-0.923,0.189,-0.242,0.183,5.127,-1.221
-0.918,0.208,-0.253,-8.911,3.601,-2.197
-0.923,0.209,-0.249,-8.789,2.625,-2.197
-0.922,0.212,-0.258,-6.531,2.197,-1.892
-0.936,0.194,-0.227,-1.404,0.366,-1.709
-0.946,0.178,-0.211,4.578,1.16,0.122
-0.942,0.184,-0.204,5.249,1.404,1.221
-0.929,0.18,-0.239,-0.671,0.183,-1.221
-0.934,0.181,-0.234,-2.747,1.221,-1.587
-0.933,0.179,-0.235,-3.174,1.587,-1.831
-0.935,0.175,-0.226,-5.066,1.099,-2.014
-0.941,0.188,-0.225,-4.944,1.526,-1.587
-0.938,0.192,-0.228,-4.456,1.648,-1.465
-0.93,0.192,-0.224,-1.282,1.038,-1.282
-0.933,0.186,-0.222,0.183,1.587,-1.038
-0.939,0.187,-0.226,0.305,1.831,-1.099
-0.938,0.174,-0.217,-0.183,2.014,-0.977
-0.93,0.186,-0.24,-2.502,2.625,-0.732
-0.93,0.195,-0.23,-3.784,2.197,-1.221
-0.938,0.203,-0.214,-4.211,1.282,-1.282
-0.936,0.2,-0.211,-3.662,1.892,-1.282
-0.932,0.199,-0.232,-2.747,1.831,-0.427
-0.932,0.2,-0.229,-2.747,1.16,-0.183
-0.933,0.199,-0.223,-2.136,1.16,0.366
-0.931,0.197,-0.23,-1.465,1.404,0.61
-0.928,0.196,-0.233,1.709,1.343,1.587
-0.927,0.193,-0.236,2.319,1.404,1.648
-0.923,0.194,-0.238,2.258,0.793,1.587
-0.923,0.2,-0.229,1.526,-0.61,0.061
-0.93,0.19,-0.224,1.526,-0.061,-0.305
-0.935,0.18,-0.232,0.671,-0.488,-0.549
-0.935,0.186,-0.234,0.732,-0.366,-0.732
-0.938,0.178,-0.208,0.488,-0.549,-1.221
-0.937,0.172,-0.227,-0.061,0.488,-0.793
-0.937,0.179,-0.222,-0.244,-0.305,-0.854
-0.936,0.188,-0.225,0.427,-0.061,-0.671
-0.936,0.186,-0.217,0.366,-0.366,-0.549
-0.935,0.184,-0.231,1.16,0.427,0.061
-0.93,0.186,-0.233,1.587,0.0,-0.061
-0.933,0.19,-0.217,0.793,0.061,-0.793
-0.934,0.181,-0.227,0.61,0.854,-0.366
-0.937,0.184,-0.231,0.366,0.916,-0.488
-0.933,0.192,-0.236,-0.427,1.16,-0.732
-0.934,0.194,-0.217,-1.282,0.854,-0.854
-0.929,0.196,-0.227,-1.282,1.648,-0.305
-0.933,0.205,-0.218,-0.305,0.732,-0.549

-1.111,-0.629,0.09,30.334,59.326,72.205
-1.061,-0.792,-0.073,40.466,68.909,88.135
-0.962,-0.588,-0.163,47.485,73.853,105.896
-0.847,-0.126,-0.082,34.79,70.129,112.122
-0.811,0.106,0.035,0.977,63.538,98.511
-0.776,0.106,0.476,-6.592,86.06,57.251
-0.778,0.049,0.551,-0.305,102.051,58.533
-0.677,0.044,-0.389,60.547,114.38,83.862
-0.65,-0.143,0.175,87.646,51.208,93.262
-0.617,-0.373,-0.045,114.99,63.049,104.736
-0.682,-0.48,0.077,117.188,52.185,106.018
-0.765,-0.402,0.053,95.52,54.993,128.662
-0.991,-0.388,0.179,82.886,47.424,132.263
-0.911,-0.341,0.153,46.387,74.646,121.094
-0.934,-0.668,0.355,7.324,72.632,110.107
-0.678,-0.557,0.421,-10.925,73.914,83.008
-0.774,-0.479,0.311,10.559,58.35,89.233
-0.695,-0.896,0.449,10.376,28.992,84.717
-0.68,-0.981,0.44,-0.488,31.128,80.688
-0.664,-0.903,0.419,-37.476,37.842,69.824
-0.591,-0.756,0.495,-24.414,27.405,62.317
-0.567,-0.717,0.514,-18.494,26.428,61.096
-0.513,-0.836,0.477,7.69,14.709,55.847
-0.492,-0.943,0.58,6.531,10.62,51.392
-0.4,-0.9,0.554,-3.296,13.672,41.443
-0.37,-0.949,0.507,-1.648,9.033,34.119
-0.339,-0.981,0.457,3.174,-0.427,18.494
-0.364,-0.991,0.463,4.395,-2.502,14.343
-0.377,-1.021,0.435,6.104,-6.714,6.592
-0.373,-1.058,0.422,6.409,-9.46,2.747
-0.365,-1.051,0.418,-2.136,-20.63,-13.489
-0.487,-0.871,0.493,-20.203,-35.4,-35.583
-0.51,-0.794,0.5,-22.583,-36.743,-44.617
-0.54,-0.815,0.524,-20.874,-37.964,-52.856
-0.564,-0.823,0.53,-23.01,-35.583,-55.237
-0.552,-0.612,0.472,-14.343,-33.813,-72.266
-0.557,-0.576,0.509,-6.592,-34.729,-83.496
-0.738,-0.52,0.575,-2.258,-27.71,-86.731
-0.793,-0.526,0.5,9.338,-28.809,-86.67
-0.764,-0.441,0.344,28.32,-32.41,-97.168
-0.8,-0.414,0.296,28.687,-29.48,-101.013
-0.956,-0.482,0.17,43.152,-41.138,-100.83
-0.95,-0.537,0.028,10.803,-67.688,-91.309
-1.052,-0.318,0.112,-23.499,-70.679,-93.628
-0.879,-0.26,0.064,-65.857,-61.035,-106.262
-0.873,-0.177,0.026,-84.106,-75.989,-91.736
-0.788,-0.042,0.121,-81.543,-79.834,-81.116
-0.713,0.115,0.01,-76.782,-87.219,-71.838
-0.81,0.019,0.076,-16.724,-90.637,-64.453
-0.993,0.186,0.029,-20.264,-55.176,-58.899
-0.888,-0.002,-0.039,-18.738,-68.359,-54.626
-0.899,-0.109,-0.132,-14.099,-63.721,-51.88
-1.142,-0.025,-0.384,-41.016,13.367,-40.771
-1.109,-0.104,-0.16,-57.739,-3.784,-30.457
-1.053,0.05,-0.168,-31.555,6.714,6.348
-0.893,0.366,-0.349,1.709,3.174,15.869
-0.879,0.462,0.018,64.697,-16.663,10.071
-0.887,0.333,-0.117,73.059,-10.132,10.925
-0.936,-0.046,-0.306,42.847,-19.775,2.38
-0.929,-0.114,-0.35,23.804,-14.893,0.122
-0.914,-0.106,-0.426,-29.541,12.39,-8.179
-0.947,0.154,-0.274,-60.669,16.541,-22.339
-0.953,0.315,-0.195,-58.289,8.728,-20.325
-0.937,0.354,-0.167,-32.104,2.747,-9.827
-0.935,0.253,-0.2,20.569,-3.479,6.592
-0.915,0.204,-0.27,40.466,-6.042,9.46
-0.927,0.08,-0.29,1.587,3.174,-0.61
-0.925,0.124,-0.266,-18.188,5.249,-4.822
-0.929,0.25,-0.223,-29.236,4.883,-7.446
-0.915,0.272,-0.222,-16.724,1.587,-5.127
-0.918,0.27,-0.216,-11.23,-0.305,-3.662
-0.938,0.185,-0.253,14.648,-2.014,2.136
-0.93,0.143,-0.264,11.963,0.183,2.502
-0.934,0.15,-0.251,8.972,0.61,1.587
-0.931,0.153,-0.243,2.93,2.625,-0.427
-0.926,0.185,-0.224,-6.958,3.662,-2.319
-0.927,0.191,-0.217,-8.545,3.784,-2.808
-0.931,0.213,-0.219,-9.705,2.136,-2.075
-0.927,0.211,-0.219,-6.409,1.099,-1.526
-0.928,0.212,-0.226,-3.906,1.038,-1.282
-0.946,0.177,-0.227,4.578,0.427,-0.244
-0.943,0.17,-0.225,4.517,0.488,0.854
-0.927,0.18,-0.242,2.625,0.671,0.977
-0.93,0.183,-0.234,1.465,0.366,0.61
-0.932,0.192,-0.224,-1.343,2.014,-0.854
-0.933,0.182,-0.223,-3.235,1.465,-1.038
-0.928,0.198,-0.236,-3.113,0.61,-0.61
-0.939,0.18,-0.222,1.465,0.732,0.061
-0.937,0.179,-0.228,1.953,0.61,0.244
-0.93,0.194,-0.231,0.549,-0.061,15.564
-0.937,0.183,-0.222,-0.183,0.244,0.0
-0.926,0.2,-0.238,0.427,-0.122,-0.244
-0.93,0.198,-0.23,1.221,-0.671,0.183
-0.929,0.197,-0.229,1.16,-0.61,-0.061
-0.934,0.185,-0.235,0.671,-0.183,0.366
-0.928,0.192,-0.235,1.099,0.183,0.244
-0.929,0.19,-0.236,1.221,-0.244,0.122
-0.931,0.187,-0.231,0.732,-0.183,0.122
-0.928,0.192,-0.229,1.16,-0.122,0.183
-0.93,0.187,-0.234,1.953,0.0,0.061
-0.933,0.183,-0.234,1.16,0.122,0.0
-0.927,0.19,-0.236,-0.427,-0.061,-0.183
-0.926,0.19,-0.234,-0.244,-0.061,-0.366
-0.929,0.191,-0.234,0.366,-0.122,-0.549
-0.934,0.192,-0.231,0.244,-0.305,-0.671
-0.932,0.188,-0.227,-0.244,0.061,-0.427
-0.934,0.185,-0.229,-0.122,-0.122,-0.183
-0.927,0.193,-0.231,0.244,0.0,-0.183
-0.925,0.192,-0.237,0.549,0.122,-0.183
-0.93,0.191,-0.23,0.488,-0.549,-0.366
-0.933,0.19,-0.23,0.427,0.061,0.0
-0.929,0.19,-0.233,0.0,0.0,-0.366
-0.931,0.19,-0.234,0.061,-0.183,-0.305
-0.931,0.189,-0.232,0.122,0.0,-0.366
-0.932,0.188,-0.237,0.122,0.183,-0.244
-0.93,0.187,-0.235,0.122,-0.183,-0.183
-0.93,0.19,-0.23,0.0,-0.122,-0.122
-0.933,0.188,-0.231,-0.061,0.366,-0.061
-0.934,0.188,-0.23,-0.061,0.183,0.122

-0.897,0.339,0.474,-1.099,104.065,84.778
-0.813,0.293,0.292,1.343,122.864,80.933
-0.754,0.039,0.074,12.329,130.798,75.439
-0.762,-0.322,-0.081,31.189,121.46,73.059
-0.821,-0.58,-0.097,53.345,100.098,78.979
-0.845,-0.134,0.471,58.777,72.266,102.112
-0.829,0.004,0.526,36.133,89.294,101.379
-0.733,-0.051,0.064,11.597,128.967,88.318
-0.753,-0.302,0.09,89.905,110.291,88.928
-0.726,-0.247,-0.055,114.929,85.205,107.422
-0.826,-0.359,0.281,131.958,57.434,119.812
-0.799,-0.529,0.429,127.38,83.801,119.568
-0.938,-0.622,0.552,76.233,89.966,110.291
-0.976,-0.706,-0.02,-38.269,122.742,83.191
-0.652,-0.65,0.147,-46.082,94.421,81.482
-0.496,-0.186,0.506,-5.432,75.012,98.389
-0.425,-0.921,0.045,92.407,23.193,105.835
-0.655,-1.372,0.504,102.051,-1.282,121.277
-0.825,-1.11,0.423,52.063,18.005,122.62
-0.484,-0.965,0.372,-13.0,20.142,106.201
-0.409,-0.845,0.548,-23.071,21.179,92.957
-0.555,-0.938,0.638,-1.038,12.024,83.069
-0.228,-0.969,0.652,3.296,7.629,69.641
-0.193,-1.035,0.617,1.587,6.409,63.354
-0.289,-0.835,0.675,-18.433,6.897,30.09
-0.293,-0.844,0.663,-13.062,6.104,23.621
-0.269,-1.023,0.592,6.042,-3.174,9.46
-0.293,-1.104,0.425,6.287,-7.812,-6.592
-0.247,-1.13,0.374,1.709,-14.587,-16.052
-0.26,-1.161,0.373,-2.93,-22.034,-26.428
-0.338,-1.088,0.4,-10.498,-39.795,-36.011
-0.432,-0.893,0.462,-23.621,-53.162,-54.016
-0.459,-0.868,0.478,-26.428,-53.284,-55.115
-0.496,-0.798,0.526,-28.687,-53.101,-56.946
-0.479,-0.722,0.54,-26.794,-52.429,-58.96
-0.488,-0.683,0.558,-20.63,-49.133,-66.284
-0.541,-0.706,0.61,-15.686,-45.898,-69.397
-0.622,-0.552,0.516,4.822,-30.518,-91.98
-0.625,-0.579,0.465,6.592,-29.236,-93.75
-0.771,-0.501,0.302,18.25,-46.57,-103.76
-0.836,-0.487,0.266,22.278,-34.729,-104.858
-0.903,-0.47,0.232,29.48,-42.175,-103.943
-0.893,-0.689,-0.005,29.541,-53.223,-96.68
-0.911,-0.614,-0.066,4.456,-62.256,-93.14
-1.033,-0.378,-0.04,-15.991,-80.994,-100.586
-0.94,-0.389,0.037,-38.269,-75.5,-107.849
-0.864,-0.311,0.078,-68.787,-65.43,-96.68
-0.837,-0.062,-0.007,-95.215,-64.087,-94.482
-0.82,-0.082,0.009,-87.158,-78.491,-90.454
-0.755,0.169,-0.004,-74.951,-87.708,-72.632
-0.844,0.08,0.07,-46.753,-97.046,-70.312
-0.868,0.063,0.183,-43.579,-94.971,-71.167
-0.873,0.187,0.318,-49.622,-70.129,-68.848
-0.918,0.158,0.249,-44.067,-61.096,-67.749
-1.084,-0.047,0.275,-8.24,-50.537,-58.472
-0.915,-0.163,-0.088,12.39,-28.809,-36.926
-1.021,0.082,-0.335,-19.165,-47.852,-24.841
-0.94,0.072,-0.208,-35.828,11.414,-35.583
-0.949,0.119,-0.088,-40.405,3.784,-32.654
-0.953,0.158,-0.041,-39.124,4.028,-29.48
-0.973,0.215,-0.092,-33.142,7.019,-23.682
-0.98,0.249,-0.07,-14.099,-2.808,-10.803
-0.947,0.297,-0.162,7.874,-11.353,1.831
-0.918,0.229,-0.225,31.738,-3.662,-0.916
-0.915,0.112,-0.382,17.761,0.305,-7.751
-0.921,0.043,-0.345,-5.188,2.93,-8.545
-0.93,0.205,-0.231,-32.227,-1.038,-11.597
-0.949,0.298,-0.16,-31.86,3.113,-11.841
-0.957,0.29,-0.158,-28.564,3.235,-11.292
-0.927,0.248,-0.258,-0.549,-1.099,0.671
-0.926,0.258,-0.25,5.31,-4.028,1.099
-0.946,0.138,-0.217,2.563,4.028,1.282
-0.936,0.162,-0.249,-2.686,5.615,1.282
-0.911,0.22,-0.239,-12.268,4.15,-0.671
-0.899,0.27,-0.268,-15.076,4.639,-1.221
-0.914,0.261,-0.247,-8.911,2.197,-1.465
-0.925,0.232,-0.226,-5.981,2.075,-1.038
-0.933,0.224,-0.222,0.366,1.587,0.977
-0.938,0.209,-0.215,8.301,1.526,4.089
-0.93,0.201,-0.227,8.667,0.61,3.601
-0.923,0.196,-0.243,4.15,0.732,1.953
-0.924,0.197,-0.239,2.258,0.549,1.343
-0.926,0.202,-0.239,-5.615,1.404,0.916
-0.926,0.213,-0.235,-7.263,1.343,1.16
-0.927,0.222,-0.235,-2.563,1.343,2.014
-0.93,0.22,-0.216,1.465,-0.671,2.93
-0.932,0.211,-0.206,4.944,-0.854,3.113
-0.934,0.176,-0.228,4.333,0.366,3.662
-0.93,0.169,-0.24,1.221,1.038,3.54
-0.932,0.2,-0.23,-2.625,0.854,2.136
-0.927,0.204,-0.232,-1.587,0.854,2.075
-0.923,0.214,-0.234,4.517,-1.221,2.93
-0.925,0.208,-0.229,5.676,-1.526,2.808
-0.929,0.192,-0.227,7.507,-1.465,2.563
-0.934,0.172,-0.231,7.263,-1.587,2.319
-0.935,0.167,-0.238,0.549,-0.793,0.732
-0.939,0.171,-0.22,-1.038,-0.366,-0.061
-0.938,0.177,-0.222,0.916,-0.305,0.549
-0.939,0.18,-0.234,1.16,-0.366,0.488
-0.939,0.178,-0.222,1.282,-0.977,0.61
-0.935,0.176,-0.222,1.648,-0.854,0.549
-0.93,0.176,-0.24,1.648,-0.488,0.488
-0.929,0.178,-0.24,1.526,-1.16,-0.122
-0.928,0.178,-0.237,0.61,-1.282,-0.305
-0.934,0.178,-0.227,-0.916,-0.61,-1.038
-0.934,0.178,-0.224,-1.953,-0.366,-1.038
-0.934,0.178,-0.238,-1.831,-0.244,-0.916
-0.933,0.183,-0.242,-1.648,-0.305,-0.854
-0.93,0.189,-0.237,-0.671,-0.61,-1.038
-0.934,0.185,-0.238,-0.366,0.183,-0.732
-0.935,0.185,-0.234,-0.305,0.244,-0.671
-0.928,0.19,-0.234,-0.061,-0.122,-0.366
-0.931,0.189,-0.234,-0.366,-0.305,-0.488
-0.932,0.185,-0.235,0.183,-0.305,-0.916
-0.931,0.185,-0.238,0.061,0.244,-1.038
-0.931,0.184,-0.235,-0.793,0.488,-0.854
-0.934,0.183,-0.237,-0.854,0.61,-0.916
-0.935,0.187,-0.223,0.122,0.244,-0.732
-0.934,0.186,-0.227,0.427,0.793,-0.671

-0.901,-0.571,0.158,38.574,82.031,109.68
-0.95,-0.557,0.219,34.668,82.825,109.802
-0.993,-0.533,0.318,31.128,82.947,108.643
-1.022,-0.431,0.436,29.236,84.229,108.398
-0.975,-0.408,0.488,23.682,84.961,104.431
-0.899,-0.46,0.465,18.738,82.52,96.191
-0.831,-0.468,0.426,10.193,81.116,90.393
-0.797,-0.438,0.28,-3.357,84.9,76.294
-0.592,-0.827,0.13,15.503,80.627,72.205
-0.608,-0.926,0.205,28.564,68.726,80.017
-0.748,-0.903,0.256,27.954,50.11,93.872
-0.588,-0.919,0.241,26.062,45.044,92.285
-0.557,-1.019,0.252,28.076,35.339,85.999
-0.582,-1.268,0.308,-4.883,33.63,82.886
-0.489,-0.941,0.344,-33.813,17.7,82.886
-0.352,-0.909,0.549,-0.671,-4.578,73.608
-0.353,-0.938,0.534,3.479,-10.01,70.374
-0.24,-0.904,0.728,-8.911,-21.667,54.077
-0.291,-0.813,0.876,-11.353,-27.954,42.542
-0.389,-0.87,0.756,-12.939,-18.982,7.935
-0.345,-0.878,0.723,-10.864,-20.935,1.892
-0.353,-0.954,0.577,0.0,-28.625,-17.029
-0.365,-1.047,0.494,-3.54,-33.081,-28.259
-0.383,-1.052,0.489,-6.165,-34.973,-35.034
-0.452,-0.965,0.435,-15.991,-38.086,-42.053
-0.429,-0.869,0.435,-21.24,-43.152,-50.964
-0.442,-0.842,0.455,-20.813,-45.776,-52.795
-0.499,-0.817,0.498,-22.461,-47.424,-56.519
-0.555,-0.696,0.546,-20.508,-48.828,-64.27
-0.558,-0.696,0.564,-20.203,-49.255,-66.833
-0.58,-0.707,0.621,-17.822,-48.157,-70.251
-0.605,-0.649,0.551,-16.663,-42.542,-77.515
-0.609,-0.678,0.523,-16.113,-40.649,-79.59
-0.659,-0.577,0.488,-13.367,-36.194,-82.52
-0.71,-0.571,0.426,-8.118,-36.499,-83.984
-0.806,-0.621,0.348,6.165,-40.344,-85.999
-0.841,-0.607,0.329,8.362,-42.114,-83.862
-0.891,-0.541,0.38,12.146,-43.03,-81.238
-0.917,-0.465,0.385,14.038,-43.091,-80.444
-0.944,-0.501,-0.012,0.0,-45.166,-96.802
-0.971,-0.756,0.131,14.404,-56.763,-88.257
-0.95,-0.396,0.195,-49.316,-39.734,-88.806
-0.789,-0.056,0.084,-64.819,-43.823,-97.595
-0.772,-0.045,0.063,-58.105,-44.25,-97.229
-0.898,0.091,0.001,-2.441,-74.402,-89.844
-0.92,-0.037,0.029,12.329,-82.153,-95.886
-1.018,-0.261,0.023,7.69,-85.876,-85.754
-0.964,-0.348,0.062,-7.996,-92.407,-68.298
-0.769,-0.142,0.076,-31.555,-74.524,-63.049
-0.711,-0.06,0.039,-43.091,-62.073,-63.416
-0.682,0.236,-0.082,-46.021,-65.002,-64.941
-0.853,-0.093,0.016,-3.662,-66.528,-68.481
-0.935,-0.196,0.394,-26.611,-72.144,-51.392
-1.099,-0.069,0.129,-60.669,-24.048,-44.495
-0.927,0.214,0.074,-68.298,-29.419,-39.429
-0.962,0.205,-0.033,-36.621,-38.818,-46.814
-0.969,0.176,-0.081,-29.48,-38.269,-46.204
-0.987,-0.109,-0.141,-36.621,-27.71,-26.794
-0.965,0.104,-0.121,-9.521,6.287,1.526
-0.926,0.246,-0.265,2.747,-0.244,13.306
-0.877,0.328,-0.147,35.4,-9.338,3.601
-0.938,0.132,-0.208,29.846,-4.211,-6.958
-0.964,0.033,-0.26,-1.953,7.324,-6.714
-0.944,0.027,-0.379,-26.978,6.531,-5.432
-0.954,0.052,-0.31,-32.776,1.282,-6.531
-0.967,0.161,-0.203,-37.781,7.568,-7.202
-0.944,0.231,-0.211,-30.09,7.141,-8.057
-0.946,0.22,-0.153,-21.729,3.967,-6.409
-0.946,0.187,-0.178,-13.367,4.089,-2.38
-0.928,0.21,-0.242,0.244,-2.808,5.554
-0.928,0.206,-0.242,10.376,-4.761,7.019
-0.927,0.201,-0.246,13.062,-4.7,6.042
-0.934,0.126,-0.242,1.038,0.854,1.953
-0.971,0.085,-0.192,-1.099,-2.075,-0.488
-0.974,0.083,-0.185,-5.066,-0.916,-0.916
-0.941,0.157,-0.222,-8.728,1.465,-2.319
-0.933,0.163,-0.222,-7.385,1.77,-1.709
-0.945,0.175,-0.229,-1.831,-0.244,-0.305
-0.935,0.168,-0.227,0.61,-0.977,1.282
-0.935,0.154,-0.243,3.113,-1.282,1.282
-0.946,0.137,-0.22,1.587,-0.366,0.366
-0.939,0.139,-0.235,-1.526,1.038,0.061
-0.943,0.142,-0.23,-2.869,0.488,-0.671
-0.946,0.149,-0.242,-2.563,0.793,-0.793
-0.931,0.165,-0.24,-0.488,-0.427,-1.099
-0.941,0.151,-0.244,1.16,-0.488,-0.732
-0.944,0.154,-0.241,1.77,-0.671,-0.427
-0.934,0.161,-0.242,3.418,0.61,0.671
-0.932,0.161,-0.242,3.967,0.122,0.671
-0.933,0.158,-0.238,4.089,-0.366,0.671
-0.937,0.152,-0.24,1.77,0.671,0.366
-0.936,0.147,-0.246,1.099,0.793,0.305
-0.94,0.146,-0.245,0.793,0.732,0.488
-0.942,0.151,-0.24,0.671,0.61,0.244
-0.941,0.156,-0.227,-0.183,2.014,-0.244
-0.941,0.161,-0.228,-0.549,2.319,-0.122
-0.939,0.156,-0.214,-1.465,1.709,-0.366
-0.941,0.156,-0.211,-1.282,1.831,-0.305
-0.938,0.168,-0.233,-0.671,1.16,0.122
-0.932,0.182,-0.229,0.549,0.916,0.122
-0.927,0.179,-0.237,0.549,0.854,-0.244
-0.927,0.174,-0.235,0.793,0.549,-0.427
-0.939,0.161,-0.24,0.977,0.854,-0.061
-0.94,0.161,-0.227,0.122,1.526,0.366
-0.934,0.162,-0.231,0.122,2.258,0.366
-0.936,0.162,-0.234,0.488,2.075,0.427
-0.945,0.159,-0.223,1.953,1.16,0.183
-0.943,0.155,-0.213,1.282,1.16,0.305
-0.943,0.156,-0.214,1.77,1.343,0.427
-0.944,0.156,-0.21,2.625,1.709,0.366
-0.951,0.145,-0.204,2.014,0.854,0.488
-0.946,0.143,-0.212,1.587,1.16,0.854
-0.94,0.151,-0.225,2.136,1.16,0.793
-0.942,0.154,-0.221,2.197,0.854,0.61
-0.948,0.153,-0.211,2.319,0.854,0.488
-0.945,0.15,-0.212,1.465,1.221,1.038
-0.945,0.145,-0.213,1.77,1.587,0.549
-0.933,0.162,-0.212,1.526,1.16,0.793
-0.936,0.164,-0.216,1.282,0.793,0.671

-0.767,-0.576,0.229,101.135,62.561,119.995
-0.872,-0.685,0.257,101.685,57.617,122.925
-0.992,-0.787,0.352,97.839,47.607,124.512
-1.065,-0.838,0.358,83.862,48.035,126.282
-1.042,-0.806,0.399,61.462,54.504,124.512
-1.0,-0.761,0.492,33.386,59.753,115.784
-0.738,-0.74,0.298,-32.288,85.876,90.271
-0.668,-0.49,0.395,-4.944,73.12,84.29
-0.706,-0.52,0.408,11.841,67.871,85.266
-0.536,-0.732,0.438,50.354,61.462,88.379
-0.408,-1.061,0.426,40.588,52.368,85.999
-0.417,-1.094,0.443,18.433,51.758,86.304
-0.489,-1.036,0.425,-4.395,48.096,75.134
-0.254,-1.07,0.385,-21.973,35.828,61.829
-0.199,-0.973,0.475,-21.362,18.921,61.768
-0.26,-1.054,0.568,-7.812,-3.845,49.316
-0.294,-1.018,0.579,5.066,-39.551,-7.446
-0.298,-1.042,0.551,4.272,-43.274,-13.123
-0.436,-0.925,0.471,-13.855,-61.951,-37.72
-0.473,-0.868,0.45,-12.207,-72.571,-40.833
-0.541,-0.896,0.408,-15.93,-72.266,-44.312
-0.511,-0.795,0.454,-20.325,-74.829,-42.786
-0.494,-0.668,0.601,-13.306,-73.853,-52.49
-0.571,-0.657,0.638,-13.0,-71.838,-59.326
-0.604,-0.647,0.655,-14.038,-69.946,-61.89
-0.635,-0.523,0.637,-24.048,-55.237,-72.571
-0.646,-0.513,0.617,-22.705,-49.194,-79.407
-0.658,-0.52,0.595,-18.066,-46.387,-81.848
-0.761,-0.452,0.488,14.587,-43.518,-86.975
-0.794,-0.455,0.415,22.888,-37.476,-90.21
-0.871,-0.482,0.327,33.569,-38.635,-96.924
-0.963,-0.504,0.13,49.988,-44.678,-101.318
-1.001,-0.574,-0.035,25.208,-44.495,-103.027
-1.009,-0.455,-0.041,-3.845,-61.279,-110.535
-0.962,-0.43,-0.049,-7.202,-60.852,-111.633
-0.887,-0.331,-0.078,-34.729,-70.679,-110.779
-0.892,-0.31,0.015,-40.466,-67.932,-109.741
-0.885,-0.24,-0.008,-57.251,-74.097,-103.638
-0.805,-0.042,-0.01,-43.518,-92.773,-89.661
-0.814,0.178,-0.014,-40.71,-90.027,-75.623
-0.864,0.134,0.017,-3.113,-89.6,-70.435
-0.779,-0.096,0.13,2.747,-73.181,-70.862
-0.809,-0.202,0.075,-29.785,-54.321,-66.406
-0.961,-0.162,0.137,-23.193,-52.124,-62.256
-1.013,-0.178,0.122,-45.044,-39.795,-50.293
-0.951,-0.118,-0.016,-39.978,-14.282,-34.241
-0.94,-0.043,-0.138,-32.776,-7.019,-31.494
-0.999,0.092,-0.164,-22.034,-26.917,-35.828
-0.859,0.181,-0.283,-4.517,-18.738,-37.72
-0.926,0.146,-0.112,5.371,-27.954,-41.321
-1.041,0.007,-0.082,-7.568,-9.094,-20.081
-1.054,0.019,-0.117,-17.517,-7.996,-3.357
-0.956,0.139,-0.191,3.357,-5.615,0.732
-0.885,0.14,-0.363,2.502,3.54,-1.038
-0.946,0.09,-0.374,-8.972,2.747,-4.456
-0.95,0.109,-0.251,-11.719,5.249,-4.639
-0.962,0.109,-0.209,-13.611,5.493,-4.517
-0.96,0.143,-0.161,-12.817,7.812,0.977
-0.946,0.237,-0.163,-10.742,7.812,2.686
-0.936,0.288,-0.141,-5.127,5.005,3.418
-0.908,0.214,-0.245,4.944,4.211,3.418
-0.901,0.184,-0.287,6.042,3.967,3.357
-0.916,0.194,-0.309,-1.953,3.357,-1.038
-0.918,0.205,-0.27,-2.563,2.869,-1.77
-0.939,0.217,-0.2,-1.038,5.188,-3.052
-0.943,0.212,-0.203,-0.793,6.104,-3.174
-0.95,0.206,-0.206,0.0,5.676,-2.014
-0.953,0.203,-0.2,0.427,3.845,-1.221
-0.937,0.19,-0.219,1.892,4.395,-0.366
-0.93,0.186,-0.236,2.38,4.7,-0.183
-0.929,0.17,-0.231,-1.953,2.93,-1.16
-0.943,0.15,-0.235,-3.723,3.113,-1.282
-0.933,0.162,-0.244,-5.859,3.296,-1.404
-0.931,0.163,-0.229,-6.531,2.625,-2.075
-0.935,0.163,-0.221,-6.226,5.066,-2.93
-0.934,0.165,-0.236,-6.042,5.371,-2.869
-0.943,0.172,-0.205,-5.432,2.686,-2.563
-0.934,0.188,-0.221,-0.183,3.418,-2.075
-0.934,0.2,-0.223,0.61,3.296,-1.282
-0.93,0.174,-0.205,0.854,4.028,-1.892
-0.931,0.167,-0.208,1.038,4.333,-1.709
-0.938,0.157,-0.214,1.099,3.723,-1.343
-0.96,0.167,-0.185,2.197,4.639,-1.221
-0.947,0.165,-0.18,1.16,5.493,-0.549
-0.947,0.189,-0.17,0.61,4.578,0.61
-0.943,0.195,-0.176,1.709,4.883,1.099
-0.934,0.199,-0.19,2.258,3.784,0.977
-0.936,0.198,-0.187,1.831,2.93,0.61
-0.938,0.188,-0.204,2.197,0.61,0.488
-0.943,0.187,-0.188,1.953,0.916,1.038
-0.937,0.185,-0.185,1.831,1.709,1.221
-0.934,0.177,-0.191,2.93,3.052,1.526
-0.943,0.173,-0.19,3.418,2.075,0.977
-0.953,0.162,-0.169,2.686,1.221,0.427
-0.948,0.154,-0.18,2.625,1.526,0.366
-0.949,0.149,-0.18,2.502,1.099,0.244
-0.951,0.152,-0.18,-0.61,1.953,0.0
-0.947,0.16,-0.174,-0.549,1.648,-0.671
-0.944,0.184,-0.181,-0.549,1.282,-0.671
-0.933,0.201,-0.188,0.549,0.244,-0.854
-0.931,0.2,-0.188,0.732,0.183,-0.916
-0.94,0.191,-0.187,0.916,-0.122,-1.038
-0.949,0.173,-0.188,-1.16,-0.183,-0.549
-0.946,0.178,-0.173,-0.305,-0.305,-0.732
-0.948,0.17,-0.179,-0.122,0.549,-0.061
-0.939,0.18,-0.188,0.183,0.305,0.732
-0.942,0.177,-0.198,1.77,-0.488,0.305
-0.942,0.173,-0.197,0.244,0.549,0.488
-0.939,0.183,-0.185,0.916,0.793,-0.366
-0.943,0.186,-0.198,0.488,0.305,-0.366
-0.943,0.184,-0.186,-0.244,-0.61,-0.671
-0.941,0.187,-0.213,0.793,0.061,-0.488
-0.935,0.186,-0.196,1.404,-0.244,-0.671
-0.943,0.184,-0.191,2.197,-1.465,-1.038
-0.945,0.181,-0.182,1.953,-1.587,-1.099
-0.945,0.174,-0.179,1.831,-0.977,-1.038
-0.943,0.172,-0.194,1.709,-0.61,-0.916
-0.941,0.169,-0.188,0.732,-1.343,-0.977
-0.942,0.172,-0.191,0.488,-1.16,-0.854

-0.879,-0.238,0.302,26.733,114.014,84.595
-0.851,-0.128,0.153,18.005,117.737,90.576
-0.832,0.025,0.064,-1.404,110.901,92.896
-0.825,0.143,0.092,-12.207,101.624,91.125
-0.817,0.235,0.147,-8.301,95.825,88.318
-0.785,0.308,0.183,-3.235,96.985,85.388
-0.767,0.095,0.178,52.734,118.042,72.327
-0.805,-0.157,0.003,80.933,88.562,86.121
-0.623,-0.023,0.019,106.384,108.582,89.539
-0.641,-0.263,0.157,112.793,91.98,92.712
-0.736,-0.49,0.146,153.015,76.416,117.188
-0.841,-0.424,0.097,145.264,74.402,121.277
-0.82,-0.24,0.121,121.704,71.228,124.756
-0.671,-0.399,0.142,99.67,89.783,117.188
-0.66,-0.5,0.14,91.736,86.731,115.723
-0.955,-0.784,0.352,45.471,91.675,120.056
-0.792,-0.392,0.132,-17.944,111.084,91.431
-0.708,-0.537,0.137,-6.958,102.356,90.332
-0.741,-0.828,0.344,40.466,66.223,104.553
-0.676,-0.892,0.293,34.607,65.674,103.21
-0.589,-0.947,0.44,15.381,57.678,104.736
-0.382,-0.827,0.548,-6.042,56.885,93.689
-0.362,-0.836,0.561,-8.484,55.298,88.928
-0.364,-0.915,0.664,-9.583,45.837,69.031
-0.325,-0.932,0.642,-21.118,46.143,62.683
-0.292,-0.898,0.698,6.531,29.785,43.091
-0.196,-1.091,0.688,4.944,27.527,33.386
-0.189,-0.974,0.581,-10.559,16.785,20.691
-0.156,-0.998,0.555,-5.371,-4.944,6.714
-0.24,-1.059,0.536,-1.587,-24.719,1.099
-0.391,-0.961,0.598,-1.831,-42.175,-7.019
-0.371,-0.881,0.615,-6.348,-45.532,-13.855
-0.35,-0.864,0.604,-6.836,-49.927,-17.578
-0.333,-0.849,0.619,-5.127,-53.589,-20.63
-0.256,-0.848,0.601,-5.676,-59.692,-30.762
-0.224,-0.879,0.587,-6.836,-61.157,-33.997
-0.246,-0.885,0.583,-13.55,-64.331,-42.725
-0.287,-0.81,0.57,-31.067,-63.049,-51.941
-0.289,-0.781,0.606,-33.752,-63.232,-54.382
-0.356,-0.664,0.63,-36.194,-60.425,-62.927
-0.399,-0.634,0.659,-33.63,-58.655,-66.772
-0.417,-0.596,0.648,-32.41,-57.373,-66.65
-0.477,-0.592,0.643,-13.306,-59.875,-67.932
-0.553,-0.506,0.6,-3.967,-45.654,-77.332
-0.564,-0.49,0.607,-0.427,-44.128,-79.102
-0.599,-0.51,0.573,11.658,-40.649,-87.402
-0.666,-0.506,0.483,10.254,-36.682,-89.172
-0.682,-0.459,0.432,8.911,-34.912,-90.332
-0.806,-0.58,0.278,19.775,-41.321,-91.675
-0.812,-0.621,0.318,23.315,-44.495,-87.036
-0.773,-0.751,0.091,10.376,-41.016,-80.2
-0.907,-0.512,0.117,-2.38,-46.936,-76.477
-0.977,-0.48,0.095,-8.484,-45.898,-85.083
-0.97,-0.454,0.089,-7.263,-52.551,-85.632
-0.968,-0.384,0.08,-39.856,-62.195,-72.449
-0.943,-0.412,0.082,-39.246,-66.345,-71.167
-0.943,-0.23,0.211,-50.537,-72.021,-69.275
-0.945,0.145,0.173,-51.331,-59.021,-70.435
-0.94,0.161,0.083,-36.926,-58.777,-73.059
-0.882,-0.11,0.023,-0.183,-74.89,-60.73
-0.925,-0.18,-0.031,-12.451,-80.078,-58.777
-0.916,0.065,0.105,-49.011,-52.002,-60.608
-0.992,0.08,0.12,-51.88,-45.288,-46.997
-0.984,0.22,0.05,-39.917,-38.269,-45.837
-0.93,0.151,0.042,16.296,-46.692,-58.228
-0.975,0.019,-0.203,31.189,-4.822,-44.006
-0.964,0.3,-0.179,-9.888,6.226,3.418
-0.907,0.299,-0.121,42.053,-3.723,8.728
-0.934,0.144,-0.241,29.724,-6.226,2.38
-0.901,0.156,-0.336,-19.714,13.855,-2.686
-0.912,0.291,-0.207,-36.987,1.77,-7.141
-0.918,0.309,-0.185,-24.109,0.122,-6.165
-0.95,0.276,-0.115,0.122,-4.883,-0.488
-0.949,0.195,-0.184,23.926,-6.836,1.038
-0.942,0.165,-0.197,23.01,-5.432,0.793
-0.923,0.148,-0.249,8.118,-0.732,1.099
-0.925,0.162,-0.223,-1.526,2.686,-0.488
-0.91,0.231,-0.252,-17.517,7.507,-3.235
-0.914,0.265,-0.209,-20.752,1.038,-5.493
-0.934,0.257,-0.177,1.282,-3.601,-1.16
-0.941,0.234,-0.186,5.127,-2.93,-0.305
-0.941,0.182,-0.206,11.047,-2.869,3.235
-0.931,0.181,-0.223,7.568,-0.732,2.93
-0.928,0.206,-0.202,0.793,-0.122,1.16
-0.927,0.211,-0.199,-0.549,0.305,1.16
-0.927,0.224,-0.208,-3.235,1.282,1.526
-0.93,0.222,-0.214,-2.136,1.709,1.709
-0.941,0.203,-0.2,1.709,0.061,2.014
-0.94,0.199,-0.198,2.136,0.183,2.136
-0.933,0.201,-0.205,1.465,0.427,2.441
-0.933,0.207,-0.209,0.916,0.244,2.625
-0.909,0.241,-0.231,-1.831,2.441,1.953
-0.91,0.242,-0.239,-2.563,2.136,0.0
-0.913,0.229,-0.234,-1.526,1.038,-0.793
-0.936,0.195,-0.211,-1.648,-1.16,-0.854
-0.943,0.166,-0.198,-3.601,0.793,-0.305
-0.939,0.181,-0.21,-4.272,1.77,-0.671
-0.933,0.218,-0.195,-4.761,0.366,-0.732
-0.932,0.225,-0.214,-2.93,0.366,-0.549
-0.929,0.219,-0.212,-2.136,-1.282,-0.366
-0.928,0.222,-0.224,-0.366,-1.038,0.183
-0.928,0.219,-0.211,0.183,-1.526,0.0
-0.924,0.225,-0.227,1.404,-1.831,0.854
-0.926,0.219,-0.223,2.747,-2.075,1.648
-0.931,0.212,-0.217,2.808,-1.892,1.343
-0.941,0.192,-0.211,3.235,-0.488,1.709
-0.939,0.198,-0.199,2.869,-0.305,1.77
-0.934,0.195,-0.209,3.052,0.732,1.526
-0.934,0.181,-0.217,2.93,0.488,0.061
-0.939,0.18,-0.21,0.244,-0.977,-0.061
-0.942,0.179,-0.208,-0.61,-0.671,-0.183
-0.937,0.187,-0.217,-1.343,0.427,-0.061
-0.937,0.203,-0.222,-1.465,-0.061,-0.305
-0.929,0.211,-0.216,0.305,-0.793,0.427
-0.935,0.209,-0.218,1.77,-0.244,0.854
-0.926,0.208,-0.223,1.953,-0.244,1.404
-0.929,0.213,-0.221,1.099,-0.366,1.465
-0.927,0.215,-0.223,1.465,0.61,1.831
-0.928,0.216,-0.224,1.892,0.671,1.892

-0.887,-0.038,0.659,64.636,117.92,78.064
-0.856,0.079,0.277,58.655,141.663,81.604
-0.743,0.224,-0.272,58.899,155.823,83.801
-0.652,0.266,-0.538,75.073,135.742,82.642
-0.598,0.114,-0.215,90.21,93.262,76.904
-0.568,-0.069,0.194,112.488,62.134,78.674
-0.483,-0.222,0.109,150.085,71.106,96.863
-0.419,-0.411,-0.203,162.72,68.298,104.614
-0.749,-0.802,0.229,135.071,63.049,125.977
-0.917,-0.292,0.075,51.697,85.388,121.399
-0.854,-0.654,0.197,46.509,90.088,110.352
-0.865,-0.674,0.152,-35.217,105.957,97.534
-0.834,-0.581,0.193,-36.743,88.501,92.529
-0.68,-0.554,0.381,-15.381,80.872,104.492
-0.678,-1.379,0.274,96.191,37.842,98.45
-0.703,-1.151,0.356,-13.489,51.086,99.365
-0.53,-1.056,0.385,-34.424,49.438,93.506
-0.406,-0.989,0.75,4.395,20.386,59.265
-0.279,-0.677,0.621,-4.7,5.066,29.48
-0.371,-1.21,0.758,11.353,-2.563,14.771
-0.198,-1.012,0.497,-1.587,-21.362,-7.446
-0.198,-1.035,0.528,0.427,-31.86,-14.343
-0.224,-0.962,0.556,-4.822,-39.001,-20.752
-0.244,-0.935,0.564,-8.423,-41.443,-25.024
-0.41,-0.772,0.609,-18.25,-51.575,-44.495
-0.372,-0.774,0.586,-18.616,-53.284,-50.659
-0.431,-0.763,0.569,-20.02,-53.101,-56.152
-0.473,-0.688,0.613,-21.667,-51.819,-58.838
-0.468,-0.608,0.643,-22.766,-49.622,-61.89
-0.474,-0.601,0.67,-13.245,-44.8,-72.937
-0.481,-0.6,0.684,-11.353,-44.25,-74.28
-0.549,-0.518,0.548,-2.93,-34.912,-80.933
-0.573,-0.526,0.517,1.831,-36.56,-82.581
-0.641,-0.543,0.448,13.184,-36.987,-85.632
-0.732,-0.637,0.35,18.86,-42.419,-88.196
-0.748,-0.662,0.351,22.705,-42.786,-87.463
-0.778,-0.636,0.336,17.212,-38.879,-85.571
-0.821,-0.557,0.243,13.428,-42.419,-86.304
-0.916,-0.481,0.21,18.494,-52.856,-85.449
-0.823,-0.586,0.12,8.24,-61.768,-84.045
-0.838,-0.525,0.169,-7.507,-65.43,-83.435
-0.943,-0.329,0.131,-32.166,-54.565,-86.243
-0.908,-0.309,0.065,-38.696,-53.406,-93.018
-0.856,-0.294,0.125,-43.152,-60.73,-92.529
-0.859,-0.343,0.072,-55.237,-63.904,-88.501
-0.879,0.096,0.132,-65.369,-61.584,-74.219
-0.859,0.088,0.136,-53.65,-69.702,-79.773
-0.803,0.023,0.062,-31.494,-69.702,-71.655
-0.853,-0.036,-0.047,-3.296,-76.111,-57.373
-0.931,-0.041,0.068,-11.475,-83.923,-57.678
-0.841,0.15,0.051,-28.625,-57.861,-64.636
-0.915,0.007,0.039,-27.466,-77.454,-68.726
-1.059,-0.027,0.133,-8.545,-55.603,-62.134
-0.967,-0.086,-0.342,-34.79,-22.888,-25.696
-1.061,0.131,-0.203,-38.879,-13.855,-11.841
-0.989,0.17,-0.18,-8.362,9.033,4.517
-0.918,0.329,-0.049,19.226,-11.597,10.071
-0.926,0.108,-0.223,30.579,-13.55,4.456
-0.935,0.254,-0.161,-45.837,-1.526,-17.395
-0.989,0.21,-0.149,-33.02,1.465,-10.132
-0.926,0.278,-0.238,6.348,-2.93,5.676
-0.899,0.232,-0.312,29.907,0.122,8.606
-0.897,0.213,-0.281,22.827,1.587,7.568
-0.908,0.162,-0.277,6.47,4.333,2.563
-0.939,0.187,-0.205,-26.733,4.883,-5.676
-0.927,0.278,-0.233,-0.427,-1.587,-0.122
-0.933,0.247,-0.229,10.132,-1.648,2.075
-0.939,0.223,-0.22,13.55,-1.892,2.563
-0.939,0.14,-0.218,4.822,-3.235,1.953
-0.935,0.151,-0.226,-5.798,0.671,-0.427
-0.93,0.233,-0.215,-0.61,1.038,1.16
-0.926,0.216,-0.218,4.761,1.16,2.258
-0.941,0.192,-0.218,9.644,-0.854,3.174
-0.938,0.18,-0.218,9.277,-0.549,3.174
-0.928,0.165,-0.25,-0.793,4.089,2.136
-0.93,0.207,-0.232,-4.944,2.991,0.366
-0.931,0.212,-0.194,-3.113,1.892,0.854
-0.933,0.208,-0.213,-0.244,1.343,1.526
-0.932,0.174,-0.232,5.005,-0.488,1.892
-0.934,0.17,-0.229,4.761,-0.549,1.587
-0.935,0.17,-0.237,1.77,1.099,0.977
-0.936,0.164,-0.227,-1.404,1.831,0.244
-0.941,0.175,-0.22,-4.639,1.587,-0.122
-0.937,0.191,-0.215,-3.662,2.319,-0.366
-0.937,0.185,-0.221,-0.549,1.343,0.488
-0.941,0.188,-0.215,-0.183,0.916,0.793
-0.937,0.188,-0.216,0.122,0.793,0.977
-0.923,0.186,-0.232,1.221,0.977,0.916
-0.93,0.192,-0.235,1.343,1.404,0.427
-0.934,0.185,-0.212,-0.916,1.099,-0.244
-0.937,0.178,-0.212,-3.357,0.977,-0.427
-0.935,0.181,-0.216,-3.784,0.793,-0.366
-0.937,0.188,-0.225,-2.563,0.427,-0.183
-0.937,0.189,-0.224,-1.892,0.305,-0.061
-0.936,0.176,-0.224,0.916,0.183,-0.244
-0.938,0.175,-0.223,1.038,-0.122,-0.183
-0.938,0.178,-0.221,-0.183,0.305,-0.488
-0.934,0.182,-0.224,-0.427,0.488,-0.549
-0.934,0.187,-0.227,-0.183,0.793,-0.61
-0.933,0.188,-0.222,-0.549,0.244,-0.305
-0.932,0.186,-0.22,0.854,0.0,-0.427
-0.938,0.188,-0.217,0.366,-0.427,-0.305
-0.927,0.188,-0.226,0.488,-0.122,-0.122
-0.932,0.192,-0.231,0.549,-0.977,-0.671
-0.938,0.181,-0.219,-0.671,-1.099,-0.854
-0.934,0.187,-0.229,-0.183,0.244,-0.183
-0.934,0.19,-0.224,0.305,-0.793,-0.305
-0.933,0.188,-0.22,0.854,-0.549,-0.305
-0.934,0.188,-0.226,1.16,-0.122,0.0
-0.932,0.185,-0.226,0.671,0.0,-0.305
-0.934,0.18,-0.223,-0.488,0.061,-0.244
-0.934,0.193,-0.225,-0.549,0.0,-0.61
-0.934,0.19,-0.223,-0.244,0.122,-0.549
-0.934,0.192,-0.229,0.793,0.305,0.244
-0.93,0.189,-0.225,0.854,-0.061,-0.122
-0.932,0.187,-0.228,0.061,0.427,0.061
-0.934,0.185,-0.221,-0.244,0.183,0.122
-0.933,0.187,-0.221,0.0,0.0,0.0
-0.934,0.192,-0.225,0.61,0.244,-0.122

-0.853,-0.213,0.218,62.988,95.52,99.365
-0.792,-0.162,-0.106,64.697,110.413,100.525
-0.771,-0.254,-0.185,65.796,101.685,95.032
-0.816,-0.362,-0.015,67.81,84.473,91.736
-0.819,-0.346,0.071,71.777,78.369,95.764
-0.729,-0.325,0.084,75.439,84.961,102.844
-0.816,-0.383,0.143,72.083,50.354,116.211
-0.882,-0.44,0.208,74.341,45.593,117.554
-0.967,-0.326,0.338,38.818,81.055,119.568
-0.896,-0.491,0.304,21.973,85.327,106.567
-0.909,-0.58,0.363,16.541,87.097,103.943
-0.72,-0.238,0.449,-23.926,96.741,86.121
-0.713,-0.749,0.398,34.729,85.693,85.388
-0.836,-0.726,0.355,25.879,75.256,93.567
-0.537,-0.697,0.515,44.495,66.65,91.614
-0.471,-0.993,0.507,41.992,70.374,78.064
-0.507,-1.095,0.473,27.71,70.557,75.684
-0.594,-0.984,0.47,-20.142,63.843,72.937
-0.261,-1.081,0.566,10.559,32.349,52.856
-0.22,-0.989,0.63,-4.211,-33.63,-4.028
-0.454,-0.837,0.595,-22.217,-57.922,-50.659
-0.525,-0.666,0.606,-28.809,-60.242,-61.157
-0.558,-0.632,0.663,-22.644,-58.777,-65.125
-0.628,-0.538,0.639,-19.409,-53.284,-71.045
-0.62,-0.53,0.638,-18.799,-52.185,-72.388
-0.654,-0.487,0.58,-14.404,-46.936,-78.125
-0.79,-0.377,0.434,-1.404,-46.082,-79.346
-0.812,-0.565,0.352,17.09,-49.622,-82.275
-0.786,-0.629,0.346,20.447,-48.767,-74.036
-0.778,-0.583,0.258,12.146,-47.302,-72.449
-0.809,-0.568,0.206,10.559,-49.744,-70.923
-0.929,-0.572,0.157,8.423,-57.617,-73.242
-0.909,-0.544,0.182,-4.089,-60.608,-73.608
-0.8,-0.514,0.203,-24.658,-72.266,-77.087
-0.8,-0.473,0.243,-34.485,-73.73,-78.613
-0.829,-0.297,0.193,-52.979,-69.519,-83.313
-0.922,-0.181,0.165,-56.946,-80.322,-87.891
-0.849,-0.148,0.252,-64.331,-81.421,-95.154
-0.814,-0.119,0.241,-69.519,-78.979,-95.398
-0.843,0.041,0.188,-70.74,-78.674,-88.989
-0.856,0.053,0.066,-63.965,-79.468,-83.069
-0.864,0.126,0.075,-58.716,-82.397,-79.59
-0.799,0.015,0.152,-18.127,-73.975,-77.881
-0.808,0.063,0.049,-8.606,-74.768,-75.073
-0.825,-0.021,0.071,1.16,-88.013,-70.862
-0.949,-0.074,0.267,12.085,-77.576,-59.082
-1.074,-0.195,0.152,-1.526,-48.889,-49.622
-1.13,-0.124,0.146,-17.029,-35.706,-39.368
-1.119,-0.212,0.081,-17.639,-26.489,-35.4
-1.012,-0.012,-0.094,-15.259,-10.864,-22.217
-0.945,0.144,-0.202,-13.184,-8.606,-10.681
-0.943,0.176,-0.153,-7.019,-17.273,-7.935
-0.978,0.274,-0.088,1.648,-10.62,-6.409
-0.981,0.254,-0.087,4.883,-7.69,-8.423
-0.926,0.14,-0.211,14.648,-4.333,-5.554
-0.948,0.085,-0.171,-11.292,-10.62,-5.737
-0.97,0.038,-0.221,-7.996,-5.554,-5.615
-0.944,0.094,-0.247,-10.498,-4.395,-4.15
-0.926,0.138,-0.177,-20.508,-3.906,-9.766
-0.911,0.143,-0.225,-22.4,-1.221,-10.498
-0.919,0.222,-0.192,-11.108,-4.089,-10.925
-0.961,0.185,-0.122,6.958,-6.836,-10.193
-0.979,0.203,-0.199,19.653,-4.028,-5.615
-0.963,0.16,-0.149,9.46,-5.188,-2.747
-0.947,0.129,-0.234,2.747,-5.798,-1.343
-0.96,0.127,-0.177,-2.258,-1.221,-2.808
-0.954,0.138,-0.199,-2.869,1.709,-2.991
-0.947,0.217,-0.192,-4.517,-2.808,-1.343
-0.951,0.217,-0.168,-3.235,-2.136,-1.282
-0.939,0.198,-0.203,2.014,-1.892,0.244
-0.926,0.209,-0.227,-4.028,-0.061,0.366
-0.922,0.214,-0.226,-6.531,0.793,0.244
-0.914,0.243,-0.231,-2.075,-0.061,0.305
-0.935,0.197,-0.206,2.991,-0.244,1.892
-0.943,0.172,-0.216,2.319,0.122,2.014
-0.941,0.173,-0.203,-2.075,1.526,0.549
-0.939,0.176,-0.207,-2.38,2.075,0.732
-0.933,0.2,-0.215,2.869,0.305,1.282
-0.935,0.194,-0.209,3.601,0.183,0.977
-0.931,0.187,-0.204,3.296,-0.244,0.854
-0.934,0.18,-0.217,1.465,-0.122,0.305
-0.933,0.186,-0.211,1.16,-0.916,-0.427
-0.947,0.179,-0.207,-0.183,-0.061,-0.488
-0.946,0.175,-0.191,0.061,-0.122,0.244
-0.948,0.172,-0.194,0.488,-0.183,0.793
-0.939,0.184,-0.209,1.587,0.61,1.099
-0.934,0.186,-0.205,2.075,-0.366,0.916
-0.935,0.187,-0.208,1.404,-1.465,0.244
-0.937,0.172,-0.208,0.427,0.366,-0.183
-0.935,0.177,-0.216,-0.366,0.122,-0.183
-0.936,0.188,-0.208,-0.061,-0.549,-0.61
-0.939,0.185,-0.205,0.061,-0.793,-0.488
-0.941,0.183,-0.203,0.122,-0.854,-0.488
-0.937,0.184,-0.209,1.221,-0.732,-0.488
-0.939,0.181,-0.209,1.404,-0.732,-0.427
-0.938,0.179,-0.21,1.16,-0.854,-0.366
-0.937,0.184,-0.209,0.244,-0.977,-0.977
-0.942,0.182,-0.205,-1.038,-0.305,-1.099
-0.941,0.181,-0.204,-1.16,-0.122,-1.099
-0.937,0.183,-0.206,-0.732,-0.244,-1.038
-0.942,0.183,-0.205,0.122,-0.427,-0.916
-0.932,0.191,-0.216,0.488,-0.244,-0.549
-0.934,0.193,-0.213,0.793,-0.732,-0.793
-0.936,0.185,-0.213,-0.061,-0.244,-0.977
-0.941,0.187,-0.21,-0.305,0.0,-0.854
-0.935,0.188,-0.21,-0.488,-0.122,-0.854
-0.934,0.196,-0.209,0.122,-0.732,-0.549
-0.936,0.195,-0.206,0.549,-0.244,-0.671
-0.934,0.193,-0.208,0.671,0.061,-0.549
-0.935,0.188,-0.215,0.427,-0.305,-0.427
-0.934,0.197,-0.221,0.244,-0.854,-0.549
-0.936,0.192,-0.216,0.244,0.0,-0.427
-0.934,0.196,-0.213,0.244,-0.183,-0.305
-0.934,0.197,-0.21,0.549,-0.305,-0.305
-0.933,0.19,-0.214,0.854,-0.244,-0.061
-0.936,0.195,-0.213,0.732,-0.122,-0.122
-0.931,0.196,-0.213,0.977,0.183,0.061
-0.93,0.192,-0.217,0.793,0.122,0.122
-0.938,0.189,-0.211,0.427,0.122,0.0

-0.956,0.356,-0.14,32.532,42.664,47.058
-0.944,0.278,0.004,23.987,45.349,39.185
-0.933,0.16,0.023,32.349,53.955,36.255
-0.92,0.074,-0.129,46.326,63.171,38.574
-0.909,0.031,-0.303,50.476,63.049,42.847
-0.996,-0.194,0.255,19.409,31.738,47.363
-1.026,-0.268,0.164,7.69,62.622,57.617
-0.987,-0.415,0.246,-20.996,73.181,69.702
-0.963,-0.409,0.343,-27.649,79.224,77.026
-0.793,0.037,0.033,-53.894,112.854,87.036
-0.75,0.21,0.355,-43.64,105.591,78.125
-0.773,0.373,0.128,46.875,146.79,75.5
-0.661,-0.041,0.115,96.802,106.689,92.224
-0.66,-0.074,0.075,151.978,87.402,94.36
-0.695,-0.217,0.068,153.625,86.365,100.159
-0.758,-0.32,0.158,145.996,81.36,124.817
-0.744,-0.384,0.148,147.583,80.383,128.601
-0.774,-0.534,0.194,116.516,89.417,132.996
-0.886,-0.858,0.134,62.622,90.82,125.183
-0.882,-0.954,0.162,-20.996,101.501,106.384
-0.757,-0.551,0.203,-69.824,107.422,91.187
-0.642,-0.465,0.29,-22.217,88.074,95.276
-0.688,-0.608,0.438,32.166,61.035,105.774
-0.579,-0.845,0.408,47.485,50.964,106.995
-0.531,-1.032,0.483,10.071,45.776,101.746
-0.477,-0.857,0.562,-10.193,42.786,89.661
-0.158,-0.981,0.636,-8.362,24.109,68.481
-0.23,-1.059,0.671,-11.597,16.541,66.406
-0.437,-0.966,0.621,-20.081,9.583,50.354
-0.411,-1.106,0.668,-15.93,-2.014,39.551
-0.438,-0.702,0.837,-4.395,-20.874,8.423
-0.354,-1.001,0.572,2.991,-23.376,-27.283
-0.335,-0.99,0.511,-11.841,-29.663,-37.781
-0.404,-0.761,0.528,-20.447,-48.035,-50.598
-0.395,-0.7,0.59,-16.357,-50.293,-53.772
-0.415,-0.617,0.591,-13.855,-48.95,-59.387
-0.418,-0.614,0.611,-11.841,-49.744,-63.599
-0.43,-0.619,0.624,-10.681,-47.852,-66.223
-0.509,-0.643,0.56,-6.592,-51.392,-67.932
-0.546,-0.565,0.573,-6.531,-49.438,-66.528
-0.616,-0.467,0.504,-5.31,-47.424,-65.308
-0.693,-0.618,0.487,15.564,-50.598,-68.481
-0.711,-0.614,0.442,11.902,-49.622,-68.176
-0.706,-0.603,0.4,3.479,-47.974,-69.458
-0.86,-0.407,0.418,2.93,-43.762,-78.491
-0.885,-0.415,0.296,6.165,-43.274,-82.031
-0.899,-0.484,0.125,6.531,-52.185,-83.801
-0.974,-0.551,0.096,-8.972,-78.003,-85.754
-0.985,-0.473,0.115,-28.87,-79.895,-87.28
-0.903,-0.167,0.053,-68.359,-77.271,-93.811
-0.839,-0.049,-0.07,-60.12,-88.806,-88.989
-0.839,-0.122,-0.047,-47.058,-101.807,-82.642
-0.816,-0.043,0.067,-43.396,-104.248,-72.266
-0.833,0.065,0.106,-36.011,-102.6,-74.036
-0.82,0.081,0.075,-36.072,-99.365,-74.219
-0.841,-0.002,0.138,-16.968,-73.853,-67.81
-0.915,-0.121,0.181,-18.799,-62.866,-66.833
-1.043,-0.132,0.241,-26.184,-54.26,-57.739
-0.975,-0.032,-0.014,-1.587,-37.964,-26.306
-1.017,-0.016,-0.109,-12.146,-22.583,-15.564
-1.003,-0.023,-0.171,-23.743,-7.568,-10.193
-0.947,-0.003,-0.238,-16.357,7.263,-6.348
-1.015,-0.009,-0.134,-27.71,6.592,-9.705
-1.002,0.028,-0.089,-37.537,11.902,-4.272
-0.987,0.112,-0.146,-26.489,10.498,-0.244
-0.968,0.138,-0.143,-22.217,10.193,1.892
-0.901,0.193,-0.206,-13.916,9.46,4.578
-0.93,0.191,-0.219,-5.981,-0.549,2.075
-0.96,0.091,-0.215,2.441,-2.258,-2.563
-0.941,0.075,-0.181,-3.113,-2.197,-4.15
-0.978,0.069,-0.147,-9.033,-5.554,-5.92
-0.983,0.068,-0.136,-9.827,-5.249,-6.348
-0.955,0.134,-0.191,-7.812,0.0,-4.211
-0.951,0.128,-0.192,-8.118,-0.732,-4.395
-0.947,0.13,-0.189,-9.277,-2.319,-3.418
-0.941,0.134,-0.197,-8.789,-3.418,-4.089
-0.946,0.147,-0.211,-1.831,-2.38,-5.371
-0.945,0.129,-0.186,-0.366,-2.991,-6.897
-0.948,0.111,-0.182,-0.183,-2.93,-6.958
-0.939,0.116,-0.179,1.953,-3.174,-6.653
-0.927,0.167,-0.217,8.972,-4.517,-6.653
-0.911,0.171,-0.227,14.709,-9.033,-7.385
-0.934,0.236,-0.254,18.311,-11.23,-9.094
-0.942,0.186,-0.192,23.071,-13.733,-12.817
-0.947,0.137,-0.203,27.283,-9.583,-12.329
-0.973,0.101,-0.174,26.367,-10.193,-12.451
-1.0,0.033,-0.149,15.625,-2.991,-7.202
-0.994,0.079,-0.172,9.766,-2.563,-3.784
-0.972,0.13,-0.202,10.864,2.991,1.831
-0.951,0.167,-0.209,15.015,0.732,4.883
-0.921,0.206,-0.226,19.287,0.977,5.859
-0.924,0.183,-0.22,18.311,-0.671,3.174
-0.935,0.154,-0.224,2.625,1.587,-1.16
-0.943,0.148,-0.213,-1.526,0.183,-1.221
-0.945,0.148,-0.198,-2.747,-0.61,-1.465
-0.949,0.165,-0.192,-4.211,-0.122,-1.587
-0.953,0.17,-0.182,-2.502,-0.061,-1.404
-0.951,0.174,-0.19,-1.526,0.122,-1.282
-0.944,0.18,-0.195,0.427,-0.366,-0.732
-0.934,0.18,-0.229,5.615,-1.465,0.183
-0.938,0.164,-0.203,3.784,-1.343,-0.671
-0.936,0.169,-0.217,3.113,-0.305,-0.671
-0.926,0.183,-0.217,0.854,-1.099,-1.465
-0.939,0.169,-0.21,-1.648,-0.244,-2.441
-0.944,0.167,-0.209,-2.991,-0.61,-2.686
-0.944,0.172,-0.194,-4.395,-1.221,-3.052
-0.946,0.17,-0.195,-4.456,-1.221,-3.052
-0.953,0.16,-0.199,-3.235,-0.854,-1.648
-0.953,0.174,-0.206,-2.136,-0.61,-1.221
-0.946,0.177,-0.199,-1.648,-0.549,-1.099
-0.938,0.185,-0.214,1.648,0.183,-0.427
-0.936,0.185,-0.21,1.526,0.183,-0.427
-0.93,0.184,-0.208,0.793,0.0,-0.305
-0.949,0.166,-0.206,-2.502,-0.549,-1.526
-0.941,0.164,-0.2,-4.333,0.977,-1.831
-0.946,0.182,-0.2,-4.395,0.122,-1.77
-0.941,0.19,-0.208,-3.357,1.038,-1.404
-0.938,0.192,-0.209,-2.747,0.854,-1.282
-0.937,0.184,-0.216,0.732,-0.061,-0.854

-1.189,-0.338,0.272,-20.203,81.36,72.693
-1.275,-0.457,0.471,-12.39,93.323,86.365
-1.269,-0.654,0.546,7.08,110.168,106.689
-1.082,-0.778,0.241,15.015,137.451,129.944
-0.875,-0.42,-0.111,23.621,160.461,147.095
-0.703,0.226,-0.252,24.719,158.752,147.766
-0.695,0.761,-0.254,-46.814,130.92,94.727
-0.74,0.396,0.075,-0.61,105.469,40.771
-0.829,0.136,0.051,59.692,79.285,76.965
-0.813,-0.11,0.161,65.491,63.904,74.158
-0.857,-0.171,0.418,76.233,101.807,95.093
-0.806,-0.171,0.379,65.247,98.267,88.989
-0.559,-0.094,0.194,86.243,69.702,89.05
-0.532,-0.258,0.362,95.154,63.904,86.975
-0.531,-0.446,0.307,116.089,78.918,100.586
-0.591,-0.369,0.109,110.535,77.881,100.83
-0.731,-0.48,0.25,88.196,66.895,93.506
-0.737,-0.648,0.233,-3.784,79.224,89.172
-0.803,-0.677,0.331,-5.066,75.317,91.736
-0.713,-0.47,0.258,3.296,78.003,83.069
-0.627,-0.602,0.272,24.719,71.777,87.891
-0.648,-0.754,0.277,33.386,66.467,91.003
-0.831,-0.85,0.455,33.325,51.819,100.464
-0.5,-0.922,0.566,-15.991,32.776,89.783
-0.431,-0.769,0.633,2.014,15.015,73.547
-0.4,-0.922,0.701,7.08,6.042,68.604
-0.26,-0.876,0.751,-17.212,-0.549,44.983
-0.426,-0.985,0.759,-9.583,-10.315,28.137
-0.33,-0.939,0.646,-2.258,-37.292,-8.789
-0.431,-0.991,0.611,-6.958,-41.87,-16.418
-0.426,-0.81,0.572,-14.893,-54.504,-49.866
-0.504,-0.853,0.563,-18.616,-61.523,-52.917
-0.557,-0.647,0.563,-32.288,-65.125,-60.791
-0.59,-0.543,0.588,-21.973,-59.57,-67.566
-0.63,-0.473,0.544,-16.052,-54.504,-66.956
-0.632,-0.46,0.552,-13.367,-55.054,-68.604
-0.661,-0.403,0.559,-2.197,-46.997,-73.425
-0.666,-0.377,0.503,4.028,-42.175,-76.599
-0.783,-0.425,0.294,24.414,-44.312,-80.017
-0.947,-0.513,0.267,36.926,-51.758,-81.726
-0.954,-0.518,0.259,33.264,-48.889,-83.557
-0.849,-0.566,0.1,19.531,-46.814,-91.675
-0.865,-0.529,0.071,14.526,-48.157,-93.567
-0.997,-0.513,-0.06,-3.357,-61.218,-100.769
-0.966,-0.451,0.021,-18.372,-74.89,-99.548
-0.873,-0.46,-0.028,-37.109,-67.078,-93.018
-0.901,-0.194,-0.017,-59.021,-77.393,-87.952
-0.815,-0.034,-0.01,-43.64,-80.872,-79.956
-0.813,-0.127,0.004,-26.306,-81.604,-75.684
-0.842,0.064,0.098,-39.307,-88.623,-66.711
-0.811,-0.067,0.097,-32.715,-87.036,-74.036
-0.849,0.031,0.149,-28.32,-62.195,-67.139
-0.974,-0.083,0.117,-24.414,-62.195,-56.58
-0.972,0.157,-0.201,-14.221,-33.569,-43.762
-0.873,0.137,-0.178,-5.798,-50.354,-53.406
-1.019,0.02,-0.051,-27.649,-11.536,-37.537
-1.053,0.114,-0.134,-22.217,12.451,-19.958
-1.055,0.124,-0.095,-5.615,7.568,-5.981
-0.955,0.29,-0.198,22.766,1.099,11.597
-0.95,0.226,-0.099,58.35,-9.949,15.686
-0.932,0.137,-0.237,56.458,-4.15,14.404
-0.881,0.147,-0.412,-12.634,11.963,-3.418
-0.893,0.26,-0.223,-25.635,7.629,-9.338
-0.919,0.294,-0.18,-18.677,0.366,-13.123
-0.982,0.156,-0.149,13.245,-8.057,-2.197
-0.974,0.114,-0.183,14.038,-1.831,-0.977
-0.967,0.115,-0.184,12.268,-0.488,-0.916
-0.929,0.201,-0.205,-0.732,4.761,-0.305
-0.897,0.276,-0.232,-7.263,2.258,-2.014
-0.891,0.276,-0.249,-7.446,-14.954,-2.991
-0.972,0.147,-0.172,3.235,-2.625,-0.61
-0.931,0.203,-0.201,-1.892,-1.221,-0.244
-0.924,0.218,-0.245,1.526,-1.343,-0.061
-0.927,0.208,-0.228,1.709,-1.831,-0.61
-0.936,0.196,-0.192,1.526,-0.61,0.366
-0.938,0.194,-0.222,-0.61,2.319,0.122
-0.927,0.22,-0.228,-2.319,1.099,-0.61
-0.927,0.228,-0.223,-0.549,0.549,0.854
-0.926,0.224,-0.225,1.16,0.061,1.526
-0.928,0.22,-0.226,1.404,-0.305,1.404
-0.931,0.199,-0.22,2.136,-0.183,1.16
-0.93,0.208,-0.219,0.732,0.0,1.221
-0.929,0.21,-0.223,0.427,0.061,1.038
-0.926,0.204,-0.232,0.977,0.122,1.221
-0.928,0.204,-0.227,0.977,-0.427,0.854
-0.935,0.203,-0.213,1.16,-0.244,0.916
-0.941,0.187,-0.219,1.221,0.671,1.404
-0.937,0.188,-0.221,1.282,0.732,1.221
-0.928,0.199,-0.216,1.099,0.488,1.16
-0.934,0.194,-0.212,0.916,0.0,0.427
-0.934,0.192,-0.212,0.793,0.061,0.366
-0.938,0.186,-0.216,0.549,0.427,0.244
-0.931,0.199,-0.217,0.366,0.427,0.305
-0.931,0.205,-0.215,0.916,0.305,0.061
-0.93,0.196,-0.22,1.16,0.122,0.183
-0.937,0.196,-0.212,0.916,-0.183,-0.366
-0.937,0.192,-0.214,-0.305,1.221,-0.549
-0.934,0.194,-0.219,-0.549,0.854,-0.488
-0.931,0.2,-0.217,-0.549,0.0,-0.549
-0.933,0.195,-0.21,0.549,0.0,-0.61
-0.94,0.194,-0.211,0.488,0.305,-0.427
-0.935,0.196,-0.217,0.122,0.793,-0.732
-0.93,0.197,-0.215,-0.549,0.427,-0.916
-0.932,0.201,-0.219,-0.61,0.549,-0.916
-0.933,0.21,-0.211,-0.793,0.366,-0.916
-0.938,0.2,-0.209,0.122,0.244,-0.916
-0.935,0.199,-0.211,0.244,0.671,-0.549
-0.934,0.202,-0.216,0.122,0.183,-0.366
-0.928,0.206,-0.214,0.244,0.244,-0.793
-0.929,0.206,-0.218,0.366,0.122,-0.732
-0.932,0.21,-0.211,0.183,-0.183,-0.977
-0.934,0.202,-0.215,-0.488,-0.549,-0.916
-0.931,0.208,-0.212,0.122,-0.183,-0.854
-0.93,0.211,-0.217,0.732,-0.366,-0.61
-0.935,0.205,-0.22,0.488,-0.183,-0.427
-0.929,0.212,-0.213,0.854,-0.488,-0.366
-0.927,0.212,-0.211,0.854,-0.671,-0.244
-0.932,0.207,-0.222,0.977,-0.488,0.122
-0.93,0.207,-0.219,0.61,-0.549,-0.305

-1.216,-0.331,0.455,-32.043,90.637,69.031
-1.245,-0.461,0.706,-28.32,105.774,87.83
-1.416,-0.63,1.357,1.709,128.113,110.779
-1.449,-1.038,1.205,44.312,178.162,140.93
-1.131,-1.07,0.54,24.109,229.797,171.936
-0.637,-0.146,0.17,36.255,241.272,183.533
-0.366,0.726,-0.244,59.326,173.584,35.461
-0.531,-0.431,-0.003,196.411,49.072,57.312
-1.16,-1.091,0.147,183.533,63.721,128.601
-1.04,-0.264,0.438,175.598,74.768,169.922
-0.806,-0.384,0.102,104.553,79.773,135.437
-0.829,-0.589,0.12,72.571,72.144,128.601
-0.872,-0.644,0.231,40.466,78.491,122.62
-0.818,-0.756,0.33,-43.64,122.803,89.539
-0.78,-0.209,0.284,-30.334,84.29,83.13
-0.715,-0.302,0.392,-5.249,73.914,88.44
-0.756,-0.792,0.478,67.81,42.725,108.521
-0.775,-0.976,0.493,59.814,40.161,109.558
-0.747,-0.965,0.435,33.447,43.518,102.6
-0.693,-0.894,0.4,0.732,41.626,89.172
-0.692,-1.169,0.447,-29.419,34.485,78.43
-0.667,-0.941,0.539,-44.617,28.992,77.393
-0.607,-0.801,0.543,-51.636,28.87,77.393
-0.466,-0.77,0.816,6.531,-2.502,62.439
-0.368,-0.708,0.872,0.244,0.732,59.509
-0.384,-1.12,0.456,-5.31,-26.855,-11.658
-0.453,-0.904,0.514,-10.986,-50.598,-19.348
-0.517,-0.799,0.67,-13.977,-61.035,-37.659
-0.539,-0.724,0.701,-22.339,-57.739,-42.114
-0.523,-0.613,0.663,-28.442,-52.612,-49.194
-0.53,-0.644,0.649,-25.085,-50.476,-59.082
-0.629,-0.566,0.715,-22.888,-43.518,-65.43
-0.644,-0.477,0.695,-19.409,-43.335,-69.458
-0.644,-0.463,0.685,-1.343,-41.565,-75.256
-0.637,-0.494,0.569,-3.54,-40.466,-81.299
-0.661,-0.445,0.477,2.38,-37.842,-86.06
-0.708,-0.499,0.42,5.31,-37.17,-87.219
-0.746,-0.496,0.379,15.015,-32.959,-87.769
-0.723,-0.503,0.377,22.217,-34.729,-89.722
-0.723,-0.514,0.367,24.78,-35.095,-89.233
-0.734,-0.514,0.372,26.428,-37.781,-84.961
-0.856,-0.425,0.228,30.151,-39.001,-82.52
-0.96,-0.387,0.15,38.208,-47.668,-86.365
-0.946,-0.46,0.094,47.485,-48.95,-88.867
-0.996,-0.642,-0.043,17.395,-67.688,-91.675
-0.999,-0.497,0.039,-10.254,-82.092,-91.492
-0.809,-0.169,0.003,-99.792,-78.003,-90.271
-0.808,-0.118,-0.052,-99.548,-77.576,-86.67
-0.816,0.026,0.124,-82.275,-97.839,-77.393
-0.799,0.094,0.097,-68.237,-84.045,-67.871
-0.79,0.084,0.166,-56.519,-88.379,-63.171
-0.988,-0.076,0.331,-29.053,-60.242,-53.345
-1.019,-0.016,0.194,-17.334,-31.677,-41.016
-0.939,-0.097,-0.204,-23.193,-24.109,-32.959
-0.973,-0.079,-0.083,-16.113,-20.386,-22.949
-0.871,0.087,-0.307,-14.038,-16.479,-16.785
-0.852,0.101,-0.346,-12.817,-28.259,-20.447
-1.089,0.123,0.083,-28.442,-22.034,-23.071
-0.942,0.231,-0.104,-15.625,-7.751,-29.419
-0.937,0.206,-0.091,-11.108,-12.451,-29.724
-0.95,0.169,-0.136,8.362,-11.108,-20.325
-0.937,0.16,-0.253,16.968,-9.644,-13.367
-0.996,-0.044,-0.231,2.197,4.456,-17.273
-0.993,-0.035,-0.271,-2.258,5.188,-13.367
-1.016,0.032,-0.196,-12.573,-0.244,-10.071
-0.955,0.302,-0.163,-13.794,-1.892,1.526
-0.905,0.274,-0.315,17.395,1.282,4.272
-0.903,0.25,-0.279,17.822,-1.953,4.15
-0.895,0.142,-0.341,22.827,2.136,3.601
-0.962,0.139,-0.16,-14.648,1.221,-6.836
-0.978,0.122,-0.164,-17.578,1.831,-6.653
-0.977,0.144,-0.191,-20.813,3.479,-5.249
-0.924,0.212,-0.238,-16.602,3.418,-1.953
-0.921,0.222,-0.251,-12.939,2.869,-1.77
-0.928,0.218,-0.22,7.996,-0.061,-0.122
-0.947,0.148,-0.188,8.118,-0.183,0.122
-0.947,0.134,-0.222,1.099,2.075,-0.671
-0.94,0.151,-0.218,-9.949,4.944,-2.319
-0.939,0.178,-0.225,-13.611,4.15,-2.991
-0.934,0.198,-0.215,-13.184,3.845,-2.93
-0.942,0.201,-0.203,-3.662,3.357,-1.038
-0.941,0.198,-0.2,-2.686,3.113,-0.916
-0.944,0.193,-0.197,0.244,3.296,-0.061
-0.952,0.185,-0.191,0.671,3.235,1.404
-0.922,0.193,-0.2,-1.099,2.808,1.709
-0.923,0.183,-0.216,-0.488,2.869,1.892
-0.935,0.193,-0.212,-0.061,1.099,-0.488
-0.944,0.174,-0.186,-0.427,0.61,-0.732
-0.943,0.178,-0.179,-0.916,0.977,0.61
-0.942,0.184,-0.187,-0.488,1.099,0.793
-0.934,0.182,-0.201,2.502,0.305,1.404
-0.944,0.174,-0.204,2.93,1.038,1.526
-0.941,0.177,-0.194,0.244,0.366,0.549
-0.94,0.181,-0.194,0.488,0.061,0.244
-0.936,0.179,-0.193,0.366,0.183,0.366
-0.938,0.177,-0.197,0.61,-0.366,0.244
-0.948,0.17,-0.192,0.854,-0.488,0.061
-0.945,0.169,-0.197,1.282,-0.366,0.0
-0.942,0.168,-0.197,1.465,-0.916,0.0
-0.938,0.17,-0.202,1.77,-0.916,-0.366
-0.941,0.178,-0.206,2.136,-1.343,-0.671
-0.945,0.176,-0.198,1.648,-1.465,-0.732
-0.945,0.17,-0.184,0.183,-1.282,-1.099
-0.945,0.168,-0.184,-0.305,-0.977,-1.16
-0.946,0.167,-0.199,0.244,-0.183,-0.916
-0.95,0.17,-0.195,-0.671,-0.427,-0.671
-0.942,0.176,-0.195,0.549,-0.854,-0.732
-0.935,0.184,-0.204,2.319,-0.488,-0.183
-0.94,0.183,-0.191,2.258,-1.038,-0.305
-0.942,0.171,-0.206,1.831,-0.366,-0.244
-0.947,0.168,-0.191,0.854,-1.099,-0.366
-0.948,0.167,-0.197,0.427,-0.61,-0.549
-0.938,0.182,-0.203,0.854,-0.488,-0.793
-0.936,0.184,-0.204,0.977,-0.244,-0.61
-0.938,0.185,-0.204,1.282,-0.854,-0.549
-0.943,0.176,-0.201,1.892,-0.488,-0.305
-0.94,0.176,-0.203,2.075,-0.671,-0.488
-0.908,0.172,-0.195,1.221,-1.221,-0.793
-0.937,0.175,-0.206,1.16,-0.916,-0.793

-1.052,-0.27,0.329,-1.77,90.637,73.303
-1.005,-0.311,0.268,5.127,101.135,81.055
-0.956,-0.313,0.064,17.517,109.192,86.731
-0.88,-0.183,-0.163,32.349,108.032,90.637
-0.787,0.079,-0.192,35.339,93.506,88.989
-0.737,0.315,-0.008,28.503,73.669,78.613
-0.859,-0.087,0.529,60.12,113.647,66.04
-0.638,-0.071,-0.202,87.891,127.38,78.796
-0.766,-0.293,0.597,99.792,77.087,87.036
-0.805,-0.359,0.197,109.802,105.835,96.924
-0.741,0.084,0.009,77.393,100.098,112.366
-0.486,0.241,-0.027,85.449,97.473,96.375
-0.548,-0.593,0.18,133.24,81.055,99.67
-0.906,-0.869,0.203,121.765,81.482,111.511
-1.187,-0.402,0.227,66.162,83.557,124.329
-0.815,-0.706,0.335,36.926,76.782,100.22
-0.927,-0.647,0.335,-11.414,80.75,93.689
-0.824,-0.435,0.289,10.681,69.458,88.013
-0.735,-0.886,0.399,47.485,47.363,95.642
-0.741,-1.073,0.395,41.687,36.011,92.834
-0.824,-1.037,0.462,-1.648,28.442,84.473
-0.807,-0.891,0.591,-24.292,28.992,80.383
-0.527,-0.752,0.725,-16.296,17.334,56.091
-0.42,-0.741,0.678,-15.015,16.296,50.049
-0.338,-0.878,0.615,-8.606,4.639,37.048
-0.365,-0.907,0.504,-9.766,-3.784,28.625
-0.351,-1.04,0.477,-5.493,-27.466,13.733
-0.462,-0.833,0.603,-17.822,-43.823,-3.296
-0.482,-0.774,0.593,-18.188,-48.645,-28.625
-0.509,-0.758,0.612,-18.066,-51.331,-18.555
-0.509,-0.774,0.617,-23.193,-52.307,-27.588
-0.531,-0.727,0.603,-29.48,-50.171,-36.926
-0.529,-0.654,0.593,-33.569,-45.837,-44.006
-0.507,-0.622,0.568,-31.799,-43.701,-50.049
-0.597,-0.603,0.553,-20.874,-37.964,-69.214
-0.603,-0.539,0.529,-14.038,-36.133,-76.172
-0.765,-0.547,0.43,20.813,-40.71,-88.928
-0.822,-0.535,0.401,22.034,-38.879,-92.59
-0.862,-0.442,0.263,33.264,-43.335,-98.022
-0.855,-0.654,0.187,37.964,-46.936,-102.234
-0.921,-0.581,0.135,18.616,-59.387,-91.064
-0.942,-0.471,0.213,8.118,-63.171,-91.125
-1.017,-0.202,0.146,-17.7,-57.8,-98.328
-0.919,-0.246,0.085,-13.672,-75.134,-107.483
-0.958,-0.246,0.018,-17.761,-75.684,-95.154
-0.942,-0.117,0.031,-25.513,-86.243,-88.989
-0.931,-0.133,0.062,-30.518,-87.402,-90.21
-0.902,-0.066,-0.012,-47.119,-87.524,-87.219
-0.777,0.042,-0.045,-37.354,-78.247,-93.079
-0.644,-0.179,-0.128,-22.217,-97.839,-87.646
-0.655,-0.185,-0.111,-30.457,-104.614,-82.52
-0.7,-0.22,0.252,-58.167,-115.662,-77.148
-1.073,0.102,0.435,-75.562,-52.185,-68.237
-1.123,0.203,0.229,-83.435,-32.288,-80.933
-1.062,0.204,0.129,-79.102,-31.555,-80.994
-0.867,0.126,-0.13,-36.499,-52.368,-60.913
-0.867,-0.378,-0.154,-25.635,-75.134,-35.522
-1.206,0.226,0.006,-35.522,-38.879,-37.17
-1.172,0.097,-0.125,4.639,28.076,-45.288
-1.166,-0.11,-0.014,2.502,18.066,-26.611
-0.995,0.144,-0.381,1.953,12.634,18.494
-0.946,0.262,-0.396,3.235,2.869,19.775
-0.745,0.644,-0.278,39.795,-4.822,13.062
-0.82,0.393,-0.075,42.419,-9.644,-2.258
-0.971,-0.044,-0.237,1.221,-13.733,-9.155
-0.969,-0.069,-0.248,-6.958,-6.348,-7.263
-1.01,-0.012,-0.357,-31.433,1.221,-9.583
-0.951,0.147,-0.276,-31.128,5.188,-8.545
-0.903,0.406,-0.195,-11.963,3.174,-4.761
-0.894,0.409,-0.154,-6.165,1.587,-3.357
-0.913,0.346,-0.194,14.832,-5.615,2.441
-0.915,0.258,-0.198,18.494,-11.353,1.892
-0.936,0.112,-0.314,16.968,-8.179,0.671
-0.926,0.191,-0.25,-16.052,0.549,-3.357
-0.918,0.237,-0.236,-16.724,3.357,-5.188
-0.918,0.259,-0.219,-13.672,3.296,-3.601
-0.917,0.286,-0.238,-2.869,1.526,-0.854
-0.918,0.289,-0.245,0.183,0.916,0.0
-0.918,0.205,-0.286,10.742,0.305,3.601
-0.923,0.196,-0.29,8.423,0.244,3.784
-0.93,0.235,-0.205,1.587,4.517,1.587
-0.929,0.244,-0.212,2.625,4.761,2.319
-0.934,0.22,-0.222,11.841,1.709,6.409
-0.93,0.195,-0.24,16.907,0.0,7.996
-0.931,0.197,-0.239,16.785,0.183,7.935
-0.938,0.173,-0.219,11.841,2.197,7.08
-0.926,0.183,-0.205,7.874,3.235,6.409
-0.915,0.191,-0.207,5.981,4.15,5.981
-0.912,0.225,-0.231,1.465,3.54,4.211
-0.915,0.228,-0.231,0.916,3.052,3.235
-0.913,0.231,-0.225,-0.488,1.77,2.319
-0.926,0.207,-0.215,-0.488,1.587,1.709
-0.931,0.194,-0.216,-0.366,1.892,1.709
-0.942,0.175,-0.212,-1.099,1.404,2.075
-0.942,0.177,-0.208,-1.709,1.404,2.136
-0.942,0.19,-0.209,-1.648,1.892,2.014
-0.937,0.188,-0.208,-0.122,2.563,2.136
-0.938,0.193,-0.22,0.244,2.625,2.686
-0.936,0.199,-0.206,0.427,1.465,3.113
-0.934,0.19,-0.214,1.099,2.258,3.357
-0.928,0.193,-0.221,1.038,1.587,3.296
-0.931,0.194,-0.214,0.183,1.709,2.319
-0.934,0.188,-0.212,-0.427,1.587,2.258
-0.933,0.187,-0.212,-0.305,1.404,2.197
-0.933,0.191,-0.211,0.61,1.16,2.014
-0.934,0.191,-0.21,1.099,1.099,1.892
-0.939,0.182,-0.206,1.404,0.671,1.77
-0.941,0.177,-0.199,1.648,1.038,2.075
-0.943,0.174,-0.198,1.648,1.16,2.197
-0.943,0.174,-0.199,1.526,1.221,2.014
-0.942,0.175,-0.201,1.282,1.282,1.831
-0.941,0.172,-0.203,0.854,1.099,1.709
-0.939,0.174,-0.202,0.549,1.221,1.404
-0.936,0.175,-0.203,0.305,1.16,1.465
-0.939,0.174,-0.202,-0.427,0.854,0.732
-0.942,0.175,-0.201,-0.427,0.977,0.488
-0.945,0.169,-0.195,-0.488,1.038,0.366
-0.946,0.164,-0.195,-0.732,0.977,0.488
-0.946,0.164,-0.196,-0.732,0.916,0.671

-0.974,-0.276,0.471,58.044,83.679,76.965
-0.968,-0.277,0.534,55.054,96.375,84.167
-0.907,-0.184,0.442,43.823,113.647,90.332
-0.818,-0.006,0.349,21.423,125.427,95.093
-0.785,0.087,0.27,1.953,128.601,95.581
-0.766,0.031,0.114,3.967,129.211,93.201
-0.715,0.007,-0.044,15.381,127.869,93.567
-0.656,0.349,0.159,47.852,135.193,77.454
-0.621,0.17,-0.084,77.759,144.47,75.317
-0.67,-0.124,-0.217,119.812,85.938,87.646
-0.771,-0.29,0.167,106.201,83.191,91.187
-0.905,-0.557,-0.194,108.948,109.375,108.276
-0.863,-0.291,0.202,80.688,91.614,124.084
-0.727,-0.322,0.239,78.003,90.942,125.244
-0.749,-0.299,0.231,72.693,85.266,122.864
-0.801,-0.417,0.184,67.871,75.623,116.699
-0.897,-0.521,0.336,39.612,76.355,115.479
-0.887,-0.624,0.33,27.161,79.224,110.718
-0.866,-0.684,0.401,-0.244,85.205,102.112
-0.87,-0.396,0.467,-26.917,93.506,91.736
-0.82,-0.383,0.364,-19.409,97.168,90.149
-0.656,-0.745,0.435,29.785,69.519,100.464
-0.716,-0.762,0.518,32.715,64.209,109.924
-0.551,-0.795,0.538,11.841,67.017,104.431
-0.373,-0.734,0.73,2.563,56.946,83.923
-0.311,-0.999,0.714,-2.625,48.279,68.481
-0.257,-0.725,0.722,-31.738,58.105,44.678
-0.293,-0.85,0.747,-21.912,51.27,30.762
-0.421,-0.914,0.629,-16.357,47.302,20.386
-0.422,-1.014,0.661,-15.869,40.466,17.334
-0.228,-1.049,0.456,-9.033,24.048,6.653
-0.242,-1.198,0.505,3.296,-7.996,3.174
-0.258,-1.159,0.542,3.601,-35.461,2.136
-0.276,-1.041,0.539,0.366,-52.429,-4.395
-0.278,-1.024,0.546,-0.427,-74.158,-9.094
-0.357,-0.928,0.574,-3.845,-72.266,-13.489
-0.373,-0.89,0.562,-4.211,-76.843,-16.052
-0.437,-0.869,0.549,-5.188,-87.036,-22.4
-0.515,-0.862,0.576,-13.245,-97.29,-28.442
-0.488,-0.717,0.614,-24.841,-91.553,-40.161
-0.554,-0.763,0.621,-26.978,-86.548,-44.373
-0.56,-0.664,0.766,-49.5,-64.026,-55.969
-0.535,-0.543,0.638,-37.72,-68.237,-60.913
-0.563,-0.552,0.627,-36.621,-65.186,-63.477
-0.564,-0.499,0.621,-33.264,-65.796,-68.42
-0.66,-0.435,0.626,-17.822,-66.04,-81.482
-0.711,-0.425,0.629,-14.771,-65.857,-83.618
-0.808,-0.412,0.547,-12.39,-60.73,-89.417
-0.794,-0.326,0.526,-5.31,-63.11,-100.22
-0.864,-0.28,0.385,14.709,-65.43,-105.53
-0.987,-0.338,0.281,23.254,-67.444,-97.29
-0.993,-0.33,0.219,18.738,-68.176,-96.497
-0.899,-0.319,0.169,13.855,-75.134,-96.619
-0.848,-0.343,0.103,23.01,-80.139,-94.971
-0.871,-0.36,0.012,16.663,-85.388,-93.872
-0.93,-0.294,-0.011,0.854,-99.609,-93.445
-0.937,-0.229,0.024,-20.447,-115.173,-98.938
-0.86,-0.158,-0.005,-38.757,-101.807,-105.347
-0.826,-0.13,0.062,-56.091,-92.102,-109.985
-0.779,-0.106,0.058,-75.989,-70.19,-112.366
-0.662,0.05,-0.135,-82.092,-68.726,-114.014
-0.648,0.108,0.053,-59.509,-99.304,-101.196
-0.629,0.192,0.071,-45.654,-101.318,-95.276
-0.711,0.09,0.184,-41.931,-108.704,-92.468
-0.953,-0.029,0.201,-44.067,-99.915,-68.542
-0.944,0.236,0.126,-35.217,-95.764,-68.542
-0.977,0.315,0.202,31.372,-101.318,-89.355
-1.458,0.103,0.457,32.532,-29.541,-60.303
-1.562,-0.062,0.375,9.094,-22.034,-48.035
-1.534,-0.424,-0.077,-51.88,-0.854,-14.771
-0.931,-0.178,-0.728,-10.742,12.329,64.514
-0.807,0.137,-0.773,5.615,0.854,65.857
-0.717,0.672,-0.395,34.302,-19.104,23.01
-0.87,0.285,-0.062,43.823,19.226,-12.512
-0.9,0.193,-0.142,45.959,36.682,-7.812
-0.883,0.057,-0.179,27.527,19.043,3.418
-0.888,0.068,-0.092,18.005,2.502,5.127
-0.971,0.303,-0.162,-2.502,-8.972,4.272
-0.951,0.375,-0.25,-10.986,-12.451,-0.671
-0.909,0.123,-0.338,-7.629,-7.141,-4.761
-1.008,-0.055,-0.249,-13.428,-0.427,-5.371
-1.014,-0.06,-0.218,-13.489,5.615,-4.333
-1.011,0.09,-0.217,-15.442,6.775,-1.709
-0.996,0.14,-0.224,-16.357,5.92,-1.282
-0.956,0.196,-0.204,-15.259,3.174,1.709
-0.888,0.261,-0.201,-3.113,2.93,7.446
-0.887,0.3,-0.218,2.625,0.122,9.277
-0.917,0.333,-0.219,15.381,-13.611,11.353
-0.904,0.226,-0.256,20.569,-3.784,7.629
-0.906,0.123,-0.281,12.268,1.526,4.028
-0.916,0.084,-0.291,0.0,5.005,3.052
-0.919,0.093,-0.299,-6.592,8.179,2.502
-0.91,0.136,-0.355,-21.362,19.348,-2.625
-0.907,0.143,-0.348,-22.705,19.714,-5.432
-0.911,0.173,-0.297,-22.4,13.794,-8.972
-0.918,0.201,-0.262,-21.79,4.944,-8.606
-0.943,0.298,-0.169,-19.226,2.625,-7.385
-0.946,0.258,-0.146,-8.728,2.991,-2.991
-0.954,0.207,-0.169,2.38,-2.808,2.502
-0.946,0.171,-0.248,20.63,-0.854,4.395
-0.943,0.168,-0.265,24.536,-0.488,4.883
-0.952,0.097,-0.214,15.564,-0.916,3.784
-0.957,0.094,-0.185,6.592,4.944,2.747
-0.956,0.124,-0.178,-1.282,7.202,1.343
-0.954,0.128,-0.168,-4.272,6.165,0.549
-0.952,0.139,-0.158,-9.094,4.822,-0.183
-0.949,0.146,-0.165,-10.742,4.517,-0.244
-0.933,0.172,-0.209,-11.047,2.869,-0.488
-0.933,0.182,-0.222,-10.376,2.136,-0.427
-0.931,0.209,-0.232,-8.301,0.549,-0.793
-0.928,0.227,-0.222,-6.836,0.427,-0.977
-0.923,0.228,-0.216,-3.052,1.892,-0.977
-0.939,0.175,-0.201,3.296,5.005,-0.977
-0.944,0.168,-0.205,2.808,1.831,0.305
-0.943,0.165,-0.19,1.465,1.465,0.732
-0.94,0.165,-0.191,-0.671,2.869,-0.244
-0.937,0.177,-0.195,-1.038,3.418,-1.038
-0.938,0.177,-0.193,-1.099,3.235,-1.221
-0.941,0.177,-0.204,-2.197,2.869,-1.343

-0.867,-0.623,0.236,68.909,65.43,123.535
-0.923,-0.688,0.308,60.059,63.11,122.925
-0.991,-0.744,0.384,43.579,63.477,120.605
-1.027,-0.803,0.426,19.348,68.97,115.845
-1.001,-0.717,0.365,-4.7,77.759,110.84
-0.948,-0.659,0.35,-24.17,81.36,104.065
-0.91,-0.578,0.379,-34.119,81.787,97.412
-0.848,-0.436,0.369,-5.615,86.243,92.896
-0.755,-0.706,0.366,13.367,72.388,102.234
-0.705,-0.808,0.498,11.169,66.406,100.647
-0.546,-0.748,0.375,3.723,73.303,91.064
-0.553,-0.854,0.371,10.498,72.327,90.881
-0.463,-0.997,0.511,10.498,60.852,87.891
-0.212,-0.867,0.509,-3.418,50.72,80.627
-0.13,-0.842,0.544,5.92,41.26,76.05
-0.163,-0.955,0.667,6.104,32.898,68.054
-0.238,-0.96,0.691,-3.845,18.555,40.527
-0.29,-0.975,0.671,-4.761,11.719,28.076
-0.32,-1.066,0.484,-1.221,-21.24,-4.761
-0.352,-1.153,0.467,-0.61,-27.466,-7.629
-0.36,-1.07,0.508,-6.165,-42.603,-16.235
-0.338,-0.92,0.549,-15.32,-52.856,-27.283
-0.404,-0.833,0.603,-21.667,-58.472,-38.33
-0.434,-0.776,0.6,-18.677,-65.002,-46.875
-0.455,-0.74,0.589,-21.729,-67.749,-55.176
-0.491,-0.739,0.623,-22.217,-68.665,-56.58
-0.493,-0.665,0.613,-25.696,-66.711,-59.631
-0.473,-0.56,0.606,-30.945,-65.125,-69.153
-0.486,-0.544,0.584,-29.48,-64.148,-70.496
-0.542,-0.654,0.618,-21.24,-66.345,-73.853
-0.675,-0.517,0.557,-21.179,-60.059,-72.632
-0.677,-0.472,0.565,-20.386,-60.242,-73.547
-0.672,-0.358,0.509,-9.338,-56.702,-77.698
-0.776,-0.424,0.534,10.437,-55.42,-81.36
-0.879,-0.431,0.5,15.259,-51.575,-82.153
-0.904,-0.423,0.461,15.259,-50.476,-83.069
-0.955,-0.391,0.317,20.874,-55.847,-88.928
-1.028,-0.467,0.094,21.423,-59.57,-95.52
-1.006,-0.487,0.062,15.198,-62.927,-96.863
-1.082,-0.42,0.016,0.427,-75.867,-107.056
-1.03,-0.427,-0.043,-26.062,-80.688,-109.985
-0.912,-0.293,-0.089,-70.618,-90.576,-108.643
-0.803,-0.075,-0.075,-89.111,-93.445,-103.516
-0.783,-0.027,-0.093,-87.28,-93.811,-105.957
-0.75,-0.044,-0.092,-76.538,-98.633,-99.243
-0.77,0.074,-0.036,-48.523,-101.868,-82.092
-0.699,0.1,-0.084,-42.969,-106.628,-85.815
-0.682,0.047,-0.062,-39.551,-112.854,-85.815
-0.718,0.044,0.168,-33.997,-120.117,-83.13
-0.916,-0.099,0.432,8.423,-70.374,-67.261
-1.248,0.035,0.479,11.414,-41.443,-62.134
-1.27,0.101,0.419,4.456,-29.846,-62.195
-0.933,0.265,-0.045,25.391,3.052,-35.461
-0.853,0.231,-0.537,34.79,-14.465,-28.137
-1.012,-0.139,-0.331,-2.075,-24.353,-7.324
-1.098,0.024,0.259,-22.827,14.038,-12.512
-1.073,0.021,0.052,-24.536,34.668,-8.667
-0.97,0.3,-0.132,-14.16,8.423,6.836
-0.835,0.417,-0.188,15.259,-3.235,4.578
-0.819,0.385,-0.203,27.039,-13.184,4.822
-0.914,0.259,-0.305,35.522,-20.325,-0.793
-0.927,0.174,-0.269,30.518,-15.198,-5.859
-0.948,0.14,-0.279,25.269,-6.836,-9.216
-1.011,-0.097,-0.347,-14.038,17.456,-10.742
-0.989,-0.016,-0.274,-33.752,15.747,-5.371
-0.924,0.4,-0.129,-44.006,1.648,-4.028
-0.892,0.39,-0.13,-0.61,-5.31,-0.244
-0.88,0.264,-0.204,23.254,-8.179,4.578
-0.916,0.19,-0.364,32.471,-12.024,6.592
-0.937,0.156,-0.32,27.527,-3.113,2.563
-0.957,0.103,-0.196,-4.028,13.184,-1.648
-0.901,0.279,-0.247,-29.724,6.47,-3.052
-0.89,0.294,-0.214,-25.757,3.357,-2.93
-0.902,0.3,-0.257,-10.132,2.93,-2.136
-0.909,0.274,-0.242,6.653,-1.465,0.549
-0.922,0.228,-0.233,16.785,-2.197,3.54
-0.927,0.209,-0.223,17.029,-1.77,3.906
-0.938,0.172,-0.24,12.268,0.916,3.54
-0.927,0.167,-0.243,2.014,1.892,-0.854
-0.922,0.178,-0.254,-5.249,3.235,-1.343
-0.919,0.201,-0.249,-12.634,2.625,-2.686
-0.918,0.211,-0.237,-15.137,2.197,-3.113
-0.923,0.243,-0.227,-16.052,2.563,-3.174
-0.927,0.243,-0.221,-14.954,2.136,-3.113
-0.931,0.236,-0.214,-10.254,2.136,-1.648
-0.932,0.233,-0.223,-4.028,2.319,-0.488
-0.928,0.23,-0.235,1.282,0.305,0.366
-0.936,0.215,-0.213,6.531,0.488,1.648
-0.934,0.196,-0.208,4.883,0.122,1.831
-0.926,0.195,-0.239,-0.977,3.418,1.099
-0.925,0.2,-0.242,-2.869,3.418,0.732
-0.926,0.206,-0.235,-6.042,3.235,0.0
-0.921,0.213,-0.238,-7.446,4.089,-0.122
-0.925,0.227,-0.229,-7.019,2.686,-0.427
-0.93,0.232,-0.218,-3.479,2.93,0.61
-0.932,0.232,-0.222,-2.197,2.747,0.977
-0.93,0.225,-0.21,-0.183,1.343,1.465
-0.93,0.221,-0.209,0.61,1.221,2.136
-0.928,0.214,-0.227,1.77,0.732,2.563
-0.927,0.203,-0.224,2.014,0.916,2.441
-0.929,0.199,-0.23,1.465,1.16,2.258
-0.924,0.205,-0.236,0.366,1.404,2.014
-0.922,0.211,-0.235,-0.183,1.465,1.709
-0.925,0.212,-0.229,-2.258,1.77,1.404
-0.928,0.211,-0.223,-2.93,1.282,1.343
-0.929,0.209,-0.216,-2.563,0.977,1.526
-0.931,0.21,-0.216,-1.282,0.916,1.648
-0.935,0.212,-0.216,-0.671,0.732,1.587
-0.931,0.198,-0.216,1.648,0.183,1.709
-0.933,0.191,-0.219,1.465,0.0,2.136
-0.937,0.193,-0.222,1.16,-0.061,2.319
-0.929,0.195,-0.233,1.77,0.122,1.16
-0.939,0.188,-0.216,0.488,0.0,0.916
-0.928,0.192,-0.221,-0.427,0.793,1.221
-0.927,0.201,-0.224,-0.671,0.61,1.099
-0.929,0.201,-0.217,-0.061,0.244,0.793
-0.935,0.192,-0.221,0.183,-0.183,0.854
-0.935,0.192,-0.218,-0.122,-0.427,0.61
-0.931,0.188,-0.224,0.488,-0.122,0.671

-1.172,-0.243,0.49,16.174,69.885,56.519
-1.209,-0.403,0.675,22.583,88.135,69.153
-1.265,-0.56,0.783,30.579,114.868,87.097
-1.317,-0.739,0.828,38.086,144.47,109.558
-1.225,-0.877,0.703,46.997,171.936,136.841
-0.938,-0.448,0.393,41.26,189.575,160.828
-0.495,0.657,0.435,29.968,177.673,130.066
-0.547,0.393,-0.493,51.88,173.767,35.156
-0.421,-0.015,-1.105,96.436,153.015,39.124
-0.451,-0.034,-0.684,107.117,29.053,79.346
-0.876,-0.392,0.15,128.845,42.725,135.925
-1.305,-0.982,0.637,100.708,130.493,154.114
-1.127,-0.04,0.22,64.514,156.616,154.48
-0.663,-0.083,-0.001,38.208,93.506,112.0
-0.657,-0.229,0.089,72.388,72.449,124.39
-0.786,-0.546,0.389,71.655,61.768,125.183
-0.86,-0.623,0.538,41.931,82.031,119.08
-1.042,-0.809,0.363,-5.371,94.116,102.661
-0.973,-0.293,0.286,-55.42,90.271,81.116
-0.788,-0.206,0.24,-38.696,86.243,81.238
-0.665,-0.376,0.351,14.221,67.2,86.853
-0.933,-0.857,0.431,29.053,55.542,100.403
-0.782,-0.869,0.496,-7.324,57.068,88.196
-0.649,-0.763,0.548,-20.996,64.941,81.421
-0.579,-0.725,0.52,-27.893,69.214,77.942
-0.455,-0.736,0.568,-11.536,52.063,69.946
-0.338,-0.696,0.55,-2.197,49.866,67.444
-0.234,-0.707,0.569,18.677,32.532,62.439
-0.203,-0.919,0.853,24.597,22.827,51.88
-0.313,-1.044,0.515,-8.179,14.648,15.137
-0.446,-1.052,0.517,-9.949,-54.749,-13.611
-0.455,-0.993,0.515,-14.771,-58.167,-15.869
-0.541,-0.802,0.605,-23.56,-72.51,-32.471
-0.567,-0.789,0.629,-23.987,-72.693,-35.522
-0.55,-0.668,0.626,-30.457,-70.74,-43.335
-0.53,-0.609,0.676,-28.748,-67.261,-54.443
-0.557,-0.618,0.679,-25.024,-62.927,-61.768
-0.621,-0.47,0.655,-23.315,-54.932,-71.899
-0.636,-0.452,0.575,-15.137,-51.392,-82.153
-0.644,-0.458,0.577,-3.601,-51.941,-85.449
-0.743,-0.487,0.556,6.531,-47.791,-90.088
-0.803,-0.414,0.501,16.724,-46.326,-97.046
-0.818,-0.411,0.417,22.339,-45.593,-99.243
-0.995,-0.423,0.195,42.358,-54.016,-102.6
-1.033,-0.52,0.141,45.166,-63.599,-107.483
-1.061,-0.476,0.103,22.705,-59.631,-109.436
-1.078,-0.334,-0.041,-19.287,-68.298,-107.361
-0.952,-0.294,-0.083,-30.09,-79.102,-110.229
-0.909,-0.311,-0.071,-42.419,-83.984,-107.422
-0.827,-0.162,-0.044,-53.528,-80.078,-100.891
-0.769,-0.11,-0.099,-68.542,-81.604,-97.961
-0.743,-0.037,-0.071,-63.477,-95.398,-85.876
-0.641,0.04,-0.025,-53.467,-111.877,-83.435
-0.649,-0.025,0.192,-59.998,-116.699,-81.116
-0.717,-0.056,0.27,-69.153,-107.605,-74.097
-1.0,0.06,0.502,-43.396,-83.191,-60.364
-1.053,0.167,0.205,-32.532,-51.575,-55.725
-0.986,0.053,0.202,-18.494,-55.908,-54.443
-0.956,0.139,0.088,11.108,-55.298,-38.635
-0.995,0.174,0.003,19.775,-44.495,-37.537
-1.049,0.078,-0.468,5.798,-8.545,-28.076
-1.002,-0.046,-0.099,-20.63,-37.476,-17.456
-1.019,-0.262,0.301,-11.963,-32.41,-19.592
-1.116,-0.111,-0.203,-19.226,31.128,-2.136
-1.059,0.099,0.012,-36.743,23.376,-2.441
-1.023,0.163,-0.223,-23.132,43.274,2.014
-0.843,0.3,-0.31,-10.498,12.329,6.775
-0.78,0.434,-0.318,23.438,-2.625,6.409
-0.878,0.326,-0.231,31.006,-15.259,-1.648
-0.979,0.074,-0.218,28.137,-16.602,-9.338
-0.992,-0.162,-0.227,10.193,-8.24,-12.146
-1.049,-0.132,-0.195,-11.841,-3.174,-12.085
-1.021,0.027,-0.206,-35.095,9.644,-9.399
-0.944,0.313,-0.217,-34.973,5.615,-5.554
-0.899,0.332,-0.203,-9.888,4.333,-2.686
-0.896,0.292,-0.204,7.202,-6.775,0.061
-0.914,0.244,-0.19,20.569,-9.094,1.404
-0.954,0.153,-0.225,20.752,-10.681,0.61
-0.962,0.086,-0.198,12.756,-1.526,-0.671
-0.957,0.085,-0.224,8.85,2.686,-0.916
-0.945,0.111,-0.251,-0.366,7.019,-1.343
-0.949,0.168,-0.231,-16.174,5.249,-3.235
-0.942,0.186,-0.221,-17.883,5.371,-3.235
-0.93,0.222,-0.218,-15.503,6.47,-3.479
-0.923,0.229,-0.22,-13.611,5.981,-3.052
-0.918,0.259,-0.234,-7.69,4.211,-1.404
-0.915,0.269,-0.206,3.54,-0.61,0.732
-0.919,0.253,-0.208,5.981,-0.488,1.221
-0.931,0.224,-0.226,10.925,-1.404,2.563
-0.939,0.145,-0.247,5.676,0.549,3.296
-0.943,0.157,-0.232,-1.465,1.038,1.526
-0.943,0.159,-0.216,-4.028,1.709,0.732
-0.933,0.187,-0.218,-7.507,4.211,0.122
-0.93,0.19,-0.225,-9.705,4.333,-0.244
-0.934,0.208,-0.21,-8.789,3.052,-0.427
-0.932,0.207,-0.217,-7.263,3.479,-0.244
-0.925,0.242,-0.224,-4.089,2.625,2.014
-0.928,0.242,-0.211,-2.808,1.526,2.197
-0.927,0.22,-0.221,2.991,2.38,3.479
-0.926,0.199,-0.225,5.737,-0.122,4.395
-0.928,0.191,-0.217,5.798,-0.427,4.333
