aX,aY,aZ,gX,gY,gZ
-1.025,-0.407,-0.176,-1.343,-15.381,68.909
-1.047,-0.468,-0.193,-6.653,-20.264,75.195
-1.065,-0.421,-0.249,-0.916,-21.667,83.313
-1.093,-0.354,-0.307,-0.183,-23.132,88.562
-1.12,-0.291,-0.334,1.953,-23.254,92.041
-1.131,-0.211,-0.322,1.709,-20.935,94.543
-1.149,-0.011,-0.189,-25.085,-4.333,97.107
-1.229,0.168,0.012,-38.147,27.039,98.877
-1.202,0.151,0.029,-41.016,13.916,101.44
-1.179,0.171,0.079,-34.119,4.578,101.685
-1.072,0.142,-0.12,-13.0,-25.879,93.994
-1.047,0.069,-0.175,-26.855,-23.132,91.187
-1.013,-0.048,-0.142,-27.1,-7.874,79.895
-0.955,-0.085,-0.077,-35.522,-5.615,68.787
-0.937,-0.083,-0.069,-43.152,-6.653,62.561
-0.884,-0.117,-0.056,-90.027,4.944,43.884
-0.898,-0.284,0.002,-34.973,-20.386,-14.954
-0.938,-0.557,-0.14,-44.739,-6.409,-15.259
-0.862,-0.437,-0.13,-41.931,-4.7,-17.761
-0.801,-0.136,-0.061,-30.151,-17.334,-14.038
-0.843,0.103,-0.006,-18.494,-26.733,-23.132
-0.955,0.247,0.286,-9.216,-23.56,-42.664
-1.869,-0.618,0.374,-21.912,10.376,-48.462
-2.086,-1.385,-0.634,-24.414,-60.486,39.795
-1.77,-0.708,-0.368,-19.409,-66.528,37.964
-0.69,0.474,0.039,-19.287,36.133,7.996
-0.228,0.858,0.05,21.851,56.763,-24.231
-0.422,0.778,0.068,33.936,45.166,-32.288
-0.856,-0.308,-0.207,30.884,-52.551,-26.55
-1.03,-0.457,-0.325,11.353,-73.12,-7.507
-1.156,-0.34,-0.283,-7.385,-63.354,-4.578
-1.167,-0.195,-0.107,-33.203,5.432,-21.423
-0.833,-0.007,-0.058,-12.695,5.249,-7.69
-0.964,-0.019,-0.127,-6.714,-7.507,-1.77
-0.991,-0.18,-0.133,11.169,-4.15,5.92
-0.949,-0.082,-0.133,6.47,-5.92,3.662
-0.963,-0.134,-0.096,-20.935,1.099,2.869
-1.019,-0.207,-0.107,-28.748,9.705,2.136
-0.988,-0.268,-0.118,9.094,-5.981,2.808
-0.956,-0.203,-0.077,-1.953,6.775,-0.061
-0.943,-0.239,-0.093,-3.479,-0.854,-1.404
-0.951,-0.239,-0.093,-2.197,-1.343,-1.587
-0.975,-0.24,-0.113,5.127,0.793,5.005
-0.964,-0.247,-0.125,5.249,0.305,5.188
-0.935,-0.214,-0.133,4.578,-2.563,3.052
-0.991,-0.214,-0.116,-8.362,-6.531,5.127
-0.999,-0.195,-0.005,-13.062,3.418,5.371
-0.965,-0.222,-0.006,-11.292,7.202,4.333
-0.959,-0.203,-0.063,-1.831,0.854,2.563
-0.942,-0.153,-0.087,13.55,-2.563,-0.183
-0.96,-0.183,-0.105,13.794,-2.991,1.648
-0.971,-0.229,-0.1,2.869,2.38,2.136
-0.965,-0.216,-0.11,-2.075,1.648,-2.563
-0.967,-0.203,-0.084,-1.526,0.671,-1.221
-0.966,-0.226,-0.104,8.057,-14.893,-0.305
-0.969,-0.236,-0.115,9.155,-1.465,-0.305
-0.965,-0.227,-0.11,4.395,-0.366,-0.732
-0.967,-0.235,-0.112,3.113,0.305,-0.732
-0.964,-0.247,-0.124,0.366,1.709,-0.61
-0.959,-0.227,-0.097,-2.014,-0.366,-0.793
-0.961,-0.208,-0.083,-0.671,0.916,-0.977
-0.961,-0.212,-0.093,0.916,-0.305,0.0
-0.962,-0.212,-0.093,0.61,-0.244,-0.183
-0.967,-0.232,-0.106,1.77,0.0,-0.061
-0.964,-0.226,-0.106,0.732,-0.122,0.183
-0.964,-0.217,-0.096,-0.488,-0.671,0.671
-0.962,-0.212,-0.097,0.366,-0.427,0.916
-0.962,-0.206,-0.094,1.099,-0.488,0.366
-0.96,-0.211,-0.093,1.526,-0.427,0.305
-0.958,-0.223,-0.114,2.686,-0.488,0.977
-0.959,-0.231,-0.134,1.038,-1.953,0.549
-0.958,-0.232,-0.139,1.892,-2.38,1.038
-0.974,-0.191,-0.086,9.399,2.686,3.296
-0.989,-0.205,-0.064,6.836,5.554,-0.122
-0.953,-0.21,-0.105,3.357,2.808,-0.61
-0.967,-0.195,-0.084,0.671,0.0,-1.221
-0.965,-0.203,-0.081,0.549,0.244,-1.16
-0.965,-0.222,-0.105,3.296,1.465,-0.671
-0.959,-0.22,-0.104,2.747,0.0,-0.183
-0.953,-0.232,-0.123,2.441,-0.732,0.427
-0.955,-0.226,-0.132,1.343,-1.099,2.319
-0.969,-0.221,-0.105,-0.366,0.244,2.869
-0.971,-0.232,-0.095,-0.732,0.977,3.296
-0.966,-0.195,-0.093,0.427,0.977,2.991
-0.964,-0.184,-0.097,3.235,1.099,1.892
-0.961,-0.186,-0.113,5.554,1.404,1.343
-0.966,-0.197,-0.101,4.883,1.953,1.221
-0.955,-0.198,-0.108,3.723,2.014,0.427
-0.958,-0.214,-0.1,-1.831,0.305,-0.854
-0.96,-0.209,-0.101,-4.639,1.343,-0.977
-0.958,-0.217,-0.096,-1.526,0.427,-0.916
-0.96,-0.224,-0.093,-0.732,0.366,-0.793
-0.969,-0.239,-0.098,3.052,-0.183,2.197
-0.962,-0.231,-0.099,1.892,1.709,3.174
-0.954,-0.215,-0.109,1.526,0.61,1.77
-0.962,-0.216,-0.126,0.671,0.916,1.038
-0.954,-0.219,-0.118,-2.136,2.319,0.0
-0.954,-0.228,-0.123,-4.7,2.869,-0.366
-0.963,-0.225,-0.1,-8.484,4.15,0.0
-0.952,-0.186,-0.086,-7.202,3.906,0.61
-0.959,-0.193,-0.089,-1.282,0.427,0.916
-0.958,-0.195,-0.09,0.916,-0.854,0.549
-0.961,-0.219,-0.104,7.812,-2.258,-0.244
-0.965,-0.227,-0.095,5.859,-0.427,-0.183
-0.962,-0.25,-0.09,1.16,2.747,-0.183
-0.957,-0.255,-0.085,-1.404,3.235,-0.488
-0.956,-0.257,-0.083,-2.075,2.38,-0.427
-0.956,-0.255,-0.088,-0.427,0.061,-0.916
-0.967,-0.258,-0.086,2.014,0.0,1.709
-0.962,-0.261,-0.102,3.052,1.343,2.319
-0.962,-0.247,-0.087,1.953,0.793,2.502
-0.961,-0.228,-0.092,-0.977,1.709,1.953
-0.958,-0.232,-0.087,-1.648,0.977,0.244
-0.949,-0.223,-0.085,-0.977,0.244,-0.977
-0.941,-0.221,-0.107,0.183,-0.854,-1.099
-0.947,-0.229,-0.108,-0.366,-1.343,-0.916
-0.965,-0.235,-0.098,-0.305,-1.099,0.61
-0.956,-0.225,-0.094,-1.343,-0.061,0.488
-0.971,-0.264,-0.09,-2.014,-1.77,1.709

-0.909,0.447,-0.177,22.095,1.099,-50.11
-0.869,0.42,-0.196,21.79,0.61,-51.453
-0.847,0.373,-0.224,21.973,-0.488,-52.673
-0.829,0.303,-0.242,24.048,-0.427,-52.49
-0.807,0.233,-0.248,25.879,-0.427,-50.903
-0.791,0.179,-0.239,27.527,-0.488,-48.279
-0.896,0.342,-0.375,81.665,-24.353,8.118
-0.969,0.768,-0.224,63.782,-15.686,28.442
-0.869,1.304,0.03,60.669,4.639,12.146
-0.747,1.067,0.175,12.329,-6.47,-4.15
-0.596,0.65,0.109,71.533,-26.489,-4.456
-0.753,0.463,-0.004,49.622,-3.235,10.742
-0.86,0.386,-0.046,-14.16,-4.7,-3.845
-0.832,0.464,-0.034,-19.409,-8.118,-4.639
-0.832,0.48,-0.044,-16.541,-8.85,-1.587
-0.926,0.396,-0.001,-26.855,-8.911,5.127
-0.921,0.425,-0.069,-26.794,-0.916,6.531
-0.956,0.43,-0.079,-33.63,7.629,3.967
-0.903,0.362,-0.064,-47.546,9.888,-6.287
-0.845,0.547,-0.068,-42.175,10.498,-8.118
-0.826,0.473,-0.175,-10.437,-0.854,-12.451
-0.807,0.401,-0.188,4.761,0.671,-6.592
-0.837,0.456,-0.165,12.024,2.197,6.775
-0.784,0.534,-0.16,12.268,2.686,7.019
-0.809,0.549,-0.136,1.831,-2.625,0.916
-0.824,0.538,-0.113,0.61,-3.357,-0.916
-0.816,0.491,-0.12,5.066,-0.916,1.526
-0.804,0.482,-0.117,3.296,2.808,1.343
-0.82,0.474,-0.107,-1.038,3.418,1.16
-0.845,0.44,-0.12,-16.479,1.465,-3.174
-0.842,0.438,-0.101,-17.883,1.831,-3.418
-0.81,0.447,-0.082,-7.507,-2.319,-0.488
-0.83,0.456,-0.124,0.793,-3.174,1.587
-0.83,0.41,-0.163,0.427,-0.61,3.418
-0.822,0.441,-0.151,-7.629,3.296,5.798
-0.821,0.536,-0.122,-12.634,0.549,3.662
-0.831,0.554,-0.095,-13.55,0.122,1.831
-0.829,0.562,-0.095,-8.362,-0.305,2.319
-0.826,0.577,-0.096,-2.991,-0.916,2.808
-0.823,0.562,-0.094,-0.366,-1.221,2.686
-0.824,0.539,-0.098,7.812,-1.221,2.136
-0.834,0.46,-0.152,8.789,-0.671,1.404
-0.832,0.443,-0.154,6.775,-0.122,1.526
-0.823,0.446,-0.166,2.869,1.648,0.977
-0.826,0.472,-0.13,-1.038,1.099,0.854
-0.827,0.491,-0.123,-1.404,-0.122,0.916
-0.831,0.466,-0.14,-1.16,-0.977,1.16
-0.825,0.44,-0.151,-1.953,0.61,1.831
-0.828,0.501,-0.125,-3.235,1.953,1.648
-0.825,0.504,-0.127,-2.93,0.793,0.61
-0.832,0.52,-0.118,-1.099,-0.366,-1.099
-0.842,0.483,-0.116,-2.136,0.916,-1.648
-0.837,0.447,-0.134,-0.183,0.977,-1.343
-0.827,0.465,-0.153,0.061,-1.526,2.014
-0.836,0.448,-0.153,-0.183,-1.404,1.953
-0.825,0.487,-0.143,-0.122,0.916,-0.916
-0.825,0.477,-0.142,-0.732,0.854,-1.282
-0.83,0.485,-0.146,-2.014,0.793,-1.343
-0.826,0.484,-0.145,-1.953,1.343,-1.343
-0.829,0.473,-0.148,-1.099,-0.061,-1.099
-0.836,0.472,-0.145,-0.183,-0.122,-1.038
-0.834,0.486,-0.137,1.099,0.854,-0.488
-0.824,0.488,-0.143,2.136,0.854,-0.549
-0.824,0.484,-0.139,0.793,0.427,-0.854
-0.832,0.49,-0.129,0.488,0.122,-0.854
-0.828,0.471,-0.146,2.747,-0.305,-0.305
-0.832,0.472,-0.143,1.709,0.793,0.183
-0.83,0.468,-0.142,1.282,0.732,0.305
-0.838,0.5,-0.128,0.366,1.282,0.305
-0.825,0.515,-0.126,1.343,1.221,-0.366
-0.823,0.498,-0.129,1.709,1.038,-1.038
-0.826,0.484,-0.134,1.526,0.671,-1.038
-0.825,0.479,-0.135,1.404,0.793,-1.16
-0.828,0.47,-0.135,1.099,0.427,0.366
-0.825,0.474,-0.137,1.221,0.366,0.61
-0.824,0.473,-0.145,2.197,0.427,1.038
-0.828,0.476,-0.141,1.587,1.343,0.854
-0.83,0.48,-0.13,-0.244,1.282,0.916
-0.829,0.466,-0.13,0.793,0.488,0.061
-0.833,0.46,-0.138,0.183,0.732,0.305
-0.831,0.457,-0.135,-0.366,1.099,0.732
-0.829,0.463,-0.13,-0.61,1.404,1.343
-0.828,0.468,-0.129,-0.427,1.526,1.404
-0.836,0.484,-0.114,-1.587,0.732,2.38
-0.826,0.499,-0.108,-1.282,0.305,2.869
-0.823,0.506,-0.101,-0.732,-0.183,2.441
-0.818,0.492,-0.111,0.488,-0.854,0.916
-0.835,0.443,-0.117,-3.845,-0.488,1.343
-0.843,0.503,-0.099,-2.625,1.038,-0.122
-0.822,0.496,-0.094,1.709,-0.488,0.183
-0.826,0.51,-0.11,3.479,-1.099,0.061
-0.834,0.462,-0.149,5.432,-1.221,-1.038
-0.846,0.438,-0.132,1.709,0.244,0.0
-0.85,0.434,-0.136,1.282,0.732,0.366
-0.853,0.412,-0.14,0.488,0.488,0.732
-0.867,0.456,-0.137,-0.427,-0.366,2.075
-0.845,0.476,-0.137,-0.977,-0.549,1.099
-0.826,0.48,-0.14,1.587,-0.122,-0.427
-0.838,0.452,-0.128,-0.366,0.305,-0.549
-0.836,0.45,-0.129,-1.404,-0.122,-0.854
-0.836,0.448,-0.132,-1.282,-0.061,-0.916
-0.84,0.455,-0.135,0.122,-0.061,-0.61
-0.84,0.497,-0.137,2.136,0.977,-1.404
-0.828,0.448,-0.143,-0.427,0.549,-2.686
-0.839,0.473,-0.131,-3.54,0.977,-2.563
-0.832,0.477,-0.13,-4.211,0.793,-2.869
-0.816,0.497,-0.132,-0.122,0.916,-2.991
-0.826,0.464,-0.144,-0.305,-0.183,-2.502
-0.836,0.455,-0.136,-1.709,0.061,-1.526
-0.826,0.466,-0.131,-1.099,-0.244,-1.038
-0.829,0.489,-0.127,-0.183,-0.549,-0.916
-0.83,0.497,-0.13,0.916,-0.488,-0.916
-0.825,0.491,-0.129,2.686,0.0,-1.038
-0.826,0.482,-0.126,0.305,0.061,-0.977
-0.826,0.485,-0.128,0.183,0.061,-1.038
-0.827,0.483,-0.128,-0.122,-0.305,-1.16
-0.831,0.495,-0.124,0.244,-0.488,-1.099
-0.823,0.485,-0.125,0.916,-0.366,-0.916
-0.824,0.492,-0.129,0.488,-0.549,-0.854

-0.904,0.452,-0.151,11.78,3.174,-13.428
-0.906,0.452,-0.14,13.428,4.761,-15.015
-0.906,0.432,-0.143,15.625,5.249,-17.09
-0.914,0.391,-0.156,18.372,4.822,-18.25
-0.933,0.338,-0.167,19.714,3.357,-18.677
-1.116,0.335,-0.159,25.757,5.981,-6.836
-1.107,0.318,-0.149,24.109,7.629,-4.089
-1.158,0.026,-0.111,20.874,19.897,26.855
-1.146,-0.176,0.187,32.104,45.959,87.463
-1.251,0.254,-0.357,51.636,-45.837,156.738
-1.383,0.471,-0.039,-26.489,-31.067,147.522
-1.323,0.433,0.123,-12.085,-5.798,159.912
-1.298,0.427,0.136,-10.864,-6.104,162.537
-1.222,0.356,-0.053,-42.297,-28.992,167.175
-0.932,0.427,-0.029,1.831,-33.936,119.812
-0.745,0.204,0.007,-42.542,-14.038,50.354
-0.737,0.211,-0.015,-52.246,-6.348,42.48
-0.703,0.148,0.022,-78.369,13.977,7.629
-0.765,0.009,0.038,-76.172,19.836,9.949
-0.788,-0.124,-0.119,-64.88,2.991,11.597
-0.802,-0.268,-0.045,-23.682,-27.283,-20.935
-1.048,-0.606,0.043,-62.744,-13.977,-20.264
-0.934,-0.338,-0.236,-31.86,-7.812,-13.855
-1.009,0.107,-0.541,-14.465,-28.137,-17.822
-1.407,-0.618,-0.013,-50.476,38.879,2.319
-1.38,-0.524,-0.048,-54.443,2.869,18.738
-0.909,0.529,0.098,-9.277,20.63,-4.028
-0.781,0.543,-0.07,35.4,7.996,-10.376
-0.702,0.299,-0.353,50.964,-21.057,-34.79
-1.054,-0.22,-0.278,2.014,-46.021,-26.184
-1.138,-0.207,-0.206,-28.992,-12.878,-11.597
-1.01,-0.155,-0.184,-28.625,10.742,-13.123
-0.922,-0.113,-0.11,-20.081,16.235,-17.822
-0.854,-0.171,-0.14,-23.438,9.155,-22.034
-0.984,-0.11,-0.162,-29.48,-4.089,-11.536
-1.011,-0.107,-0.161,-26.001,-4.15,-7.385
-0.96,-0.108,-0.098,-4.395,-2.808,0.183
-1.024,-0.216,-0.079,18.433,-8.179,-1.282
-0.996,-0.215,-0.137,15.015,-5.737,4.822
-0.966,-0.189,-0.161,10.681,0.916,4.089
-0.963,-0.186,-0.172,0.549,7.385,1.16
-0.989,-0.185,-0.137,-3.845,7.446,1.282
-0.986,-0.153,-0.142,-5.493,7.629,1.404
-0.957,-0.115,-0.13,-3.723,5.127,2.563
-0.958,-0.131,-0.091,-3.113,5.188,3.113
-0.963,-0.153,-0.094,-1.282,4.517,2.502
-0.983,-0.18,-0.105,-3.906,-0.305,1.404
-0.981,-0.17,-0.065,-5.188,2.991,0.854
-0.985,-0.185,-0.076,-4.272,2.625,0.977
-0.997,-0.161,-0.058,-4.456,3.662,1.953
-0.976,-0.131,-0.024,1.221,5.005,1.099
-0.977,-0.143,-0.021,5.554,4.639,-1.587
-0.959,-0.166,-0.077,8.728,1.648,-2.38
-0.951,-0.17,-0.085,9.46,-0.061,-2.991
-0.954,-0.185,-0.088,7.629,0.854,-1.343
-0.986,-0.22,-0.107,-0.732,1.465,0.122
-0.981,-0.194,-0.112,0.183,0.183,-0.061
-0.975,-0.13,-0.064,3.174,-1.221,1.038
-0.977,-0.153,-0.118,6.958,-1.343,0.854
-0.965,-0.158,-0.101,6.897,-1.587,0.305
-0.959,-0.155,-0.081,5.798,-0.549,-0.305
-0.964,-0.151,-0.086,2.686,0.793,3.54
-0.961,-0.166,-0.093,3.723,-0.854,2.625
-0.98,-0.15,-0.104,3.418,-1.465,1.343
-0.98,-0.176,-0.132,0.793,-0.061,3.357
-0.968,-0.149,-0.104,-3.357,2.136,3.54
-0.961,-0.132,-0.099,-2.441,1.648,2.747
-0.973,-0.157,-0.11,0.427,-0.244,1.038
-0.974,-0.153,-0.092,-1.709,1.343,1.831
-0.972,-0.16,-0.104,3.967,-1.099,1.709
-0.973,-0.188,-0.1,2.625,-0.977,2.075
-0.966,-0.187,-0.086,-0.732,2.319,1.709
-0.979,-0.174,-0.094,0.793,-0.305,0.671
-0.969,-0.17,-0.089,0.488,0.305,0.732
-0.967,-0.17,-0.097,0.61,1.221,0.732
-0.973,-0.192,-0.1,-1.343,1.221,0.549
-0.966,-0.168,-0.096,-1.16,0.0,-0.427
-0.971,-0.18,-0.097,-0.244,1.099,-0.305
-0.969,-0.182,-0.103,0.488,-0.305,0.366
-0.967,-0.177,-0.102,-1.404,0.305,-0.061
-0.969,-0.184,-0.098,-0.61,0.122,-0.305
-0.971,-0.181,-0.1,-0.732,0.671,0.183
-0.97,-0.182,-0.108,0.244,0.183,0.305
-0.965,-0.166,-0.096,0.0,0.61,0.427
-0.972,-0.177,-0.106,-0.366,-0.427,0.305
-0.969,-0.173,-0.09,1.099,0.061,-0.366
-0.968,-0.178,-0.092,0.488,-0.366,-0.732
-0.968,-0.172,-0.113,1.404,-0.061,-0.793
-0.967,-0.171,-0.116,1.282,0.366,-1.038
-0.966,-0.181,-0.111,0.305,-0.122,-0.977
-0.972,-0.177,-0.097,-3.052,1.343,-0.854
-0.967,-0.168,-0.088,-2.38,1.282,-0.793
-0.966,-0.173,-0.098,-0.916,0.061,-0.427
-0.97,-0.183,-0.112,2.075,-0.61,-0.183
-0.974,-0.185,-0.096,-1.587,1.038,0.793
-0.967,-0.163,-0.095,1.587,0.122,0.366
-0.966,-0.182,-0.101,2.563,-1.16,0.427
-0.97,-0.195,-0.113,-0.977,-0.793,1.282
-0.97,-0.189,-0.102,-1.221,-0.427,1.038
-0.969,-0.18,-0.101,-2.258,-0.244,0.427
-0.969,-0.184,-0.093,-1.953,-0.122,0.427
-0.97,-0.179,-0.098,-3.174,0.732,0.427
-0.969,-0.182,-0.107,-1.221,0.183,0.488
-0.972,-0.176,-0.096,-1.587,0.305,0.366
-0.969,-0.177,-0.095,-1.16,0.305,0.488
-0.964,-0.168,-0.105,1.831,0.732,0.122
-0.971,-0.184,-0.091,-1.648,-0.061,1.587
-0.968,-0.183,-0.097,-0.244,0.366,-1.16
-0.966,-0.194,-0.104,0.793,0.305,-0.061
-0.968,-0.203,-0.106,1.038,-0.061,0.732
-0.97,-0.201,-0.099,0.549,-0.732,0.61
-0.97,-0.201,-0.105,-0.61,-0.244,0.366
-0.971,-0.193,-0.109,-0.854,0.488,0.488
-0.962,-0.188,-0.104,-1.648,0.549,0.549
-0.963,-0.189,-0.114,-2.136,0.854,1.526
-0.965,-0.192,-0.097,-0.183,1.831,-0.122
-0.969,-0.198,-0.087,-0.671,1.038,-0.305
-0.967,-0.195,-0.094,1.099,-0.488,-0.854
-0.966,-0.198,-0.098,3.113,0.0,-0.427

-0.818,0.68,-0.441,59.082,1.16,3.723
-0.965,0.76,-0.443,47.485,-2.197,1.648
-1.013,0.774,-0.371,30.334,-3.052,-2.686
-1.002,0.78,-0.298,17.09,0.916,-6.226
-1.002,0.817,-0.244,8.545,5.859,-7.019
-0.987,0.836,-0.198,-1.892,10.071,-8.972
-0.907,0.877,-0.064,-28.381,15.076,-14.587
-0.801,0.752,0.176,-30.64,13.672,-26.794
-0.771,0.621,0.112,-9.827,-2.808,-23.926
-0.783,0.476,-0.065,11.292,-20.996,-18.616
-0.797,0.438,-0.126,14.282,-15.747,-9.277
-0.794,0.447,-0.148,5.066,7.935,2.686
-0.827,0.45,-0.114,-5.554,7.812,1.526
-0.833,0.491,-0.061,-11.841,3.479,0.671
-0.862,0.472,-0.072,-16.663,-5.066,-1.404
-0.877,0.457,0.002,-20.813,-8.911,0.366
-0.874,0.434,-0.138,-12.756,-2.686,1.16
-0.873,0.416,-0.145,-12.207,-2.258,2.686
-0.878,0.427,-0.147,-12.573,-0.793,4.578
-0.875,0.359,-0.146,-11.78,-1.16,4.272
-0.888,0.425,-0.144,-8.057,-1.648,6.47
-0.874,0.522,-0.154,-3.113,-1.282,0.61
-0.879,0.45,-0.205,-4.761,0.366,0.671
-0.854,0.498,-0.192,5.249,1.343,-0.061
-0.847,0.477,-0.208,9.399,-0.61,-3.113
-0.845,0.438,-0.203,7.935,-0.916,-3.357
-0.835,0.442,-0.207,6.348,-0.244,-2.563
-0.832,0.427,-0.214,6.104,-0.183,-2.747
-0.845,0.436,-0.203,1.587,0.305,-2.014
-0.843,0.458,-0.203,1.526,1.282,-1.648
-0.845,0.473,-0.193,0.244,1.953,-2.319
-0.84,0.485,-0.185,2.075,2.625,-2.197
-0.814,0.479,-0.192,1.16,1.831,-2.686
-0.811,0.454,-0.195,1.282,1.038,-2.502
-0.839,0.4,-0.176,-1.099,-0.305,-1.221
-0.852,0.411,-0.169,-1.465,0.427,-0.549
-0.862,0.427,-0.173,-0.61,1.404,0.183
-0.853,0.422,-0.171,0.305,1.221,0.549
-0.841,0.45,-0.182,1.038,1.038,0.549
-0.848,0.408,-0.181,-2.502,1.343,0.183
-0.851,0.411,-0.175,-3.296,1.526,-0.305
-0.864,0.429,-0.174,-4.944,1.953,0.061
-0.852,0.452,-0.165,-5.188,2.258,0.305
-0.849,0.458,-0.165,1.404,1.038,-0.366
-0.843,0.399,-0.178,-1.099,0.916,1.099
-0.84,0.435,-0.172,0.305,-0.488,-0.61
-0.858,0.442,-0.162,-0.854,0.305,0.061
-0.857,0.457,-0.16,0.244,0.793,-0.061
-0.856,0.462,-0.155,1.16,1.099,0.122
-0.84,0.467,-0.161,4.333,0.366,0.916
-0.839,0.458,-0.158,5.066,-0.488,0.916
-0.839,0.448,-0.141,4.944,-0.977,0.977
-0.848,0.443,-0.142,4.211,-0.793,0.549
-0.857,0.439,-0.156,3.113,-0.183,0.427
-0.846,0.427,-0.171,-2.38,0.732,-0.854
-0.844,0.44,-0.174,-1.526,0.061,-0.916
-0.841,0.429,-0.181,-2.014,1.343,-1.038
-0.84,0.463,-0.161,0.183,0.427,-1.526
-0.851,0.456,-0.173,1.953,0.427,-1.526
-0.844,0.433,-0.192,1.221,0.305,-1.648
-0.844,0.429,-0.177,-1.343,-0.366,-1.343
-0.847,0.449,-0.172,-1.892,0.244,-1.282
-0.848,0.459,-0.167,-1.77,0.427,-1.282
-0.836,0.473,-0.156,0.549,0.488,-1.526
-0.833,0.469,-0.162,1.282,-0.122,-1.77
-0.844,0.453,-0.165,2.258,-0.854,-1.465
-0.841,0.457,-0.173,3.357,-0.793,-1.404
-0.832,0.464,-0.176,4.456,-1.16,-1.221
-0.831,0.442,-0.179,4.028,-0.549,-1.16
-0.837,0.432,-0.173,3.052,-0.732,-1.038
-0.836,0.433,-0.174,2.502,-0.427,-1.038
-0.836,0.418,-0.183,1.831,-1.099,-0.793
-0.835,0.429,-0.183,0.427,-0.977,0.0
-0.851,0.454,-0.176,-0.305,0.0,-0.061
-0.848,0.463,-0.17,-0.427,0.488,-0.427
-0.833,0.462,-0.167,0.122,1.404,-0.977
-0.849,0.455,-0.161,0.488,0.549,-1.282
-0.84,0.487,-0.165,0.916,1.526,-1.282
-0.831,0.47,-0.167,2.502,0.793,-1.343
-0.839,0.455,-0.167,1.77,0.305,0.0
-0.841,0.463,-0.178,3.113,-0.61,-0.793
-0.842,0.454,-0.179,2.625,-0.122,-0.916
-0.837,0.449,-0.179,2.319,-0.122,-0.854
-0.834,0.447,-0.173,1.587,0.244,-0.732
-0.835,0.455,-0.17,1.038,0.671,-0.61
-0.84,0.479,-0.169,1.221,1.343,-0.916
-0.837,0.481,-0.17,1.465,1.099,-1.099
-0.826,0.466,-0.168,1.526,1.343,-1.465
-0.83,0.447,-0.17,0.916,1.038,-1.465
-0.836,0.445,-0.164,0.916,1.099,-1.282
-0.838,0.454,-0.172,0.977,0.854,-0.61
-0.833,0.467,-0.163,1.038,0.977,0.244
-0.829,0.474,-0.164,1.282,1.221,0.122
-0.824,0.47,-0.161,1.465,0.244,0.183
-0.836,0.471,-0.165,1.587,-0.671,-0.183
-0.838,0.47,-0.163,2.014,-0.305,-0.488
-0.833,0.465,-0.17,2.075,0.793,-0.427
-0.825,0.451,-0.168,1.892,0.549,-0.916
-0.828,0.454,-0.165,1.343,0.427,-0.854
-0.829,0.442,-0.175,0.977,0.549,-0.427
-0.836,0.439,-0.177,-1.343,0.366,0.305
-0.835,0.443,-0.176,-1.77,0.671,0.366
-0.83,0.468,-0.168,-2.991,1.465,0.488
-0.828,0.462,-0.167,-2.747,1.343,0.183
-0.824,0.453,-0.171,-3.174,1.099,0.0
-0.847,0.454,-0.16,-4.578,1.16,-0.244
-0.846,0.49,-0.145,-4.333,2.747,0.122
-0.836,0.497,-0.149,-3.418,3.235,-0.061
-0.824,0.465,-0.157,-1.038,0.977,-0.488
-0.835,0.464,-0.163,-0.916,0.122,-0.366
-0.836,0.466,-0.166,-1.465,0.488,0.488
-0.823,0.442,-0.177,-1.953,0.366,1.343
-0.827,0.425,-0.188,-2.136,-0.183,1.648
-0.845,0.421,-0.187,-5.127,0.366,2.563
-0.852,0.438,-0.175,-5.676,0.854,2.563
-0.839,0.462,-0.152,-6.287,1.343,2.258
-0.833,0.47,-0.149,-5.798,1.465,2.075
-0.837,0.453,-0.155,-4.211,0.122,1.587
-0.841,0.455,-0.146,-3.845,0.0,1.709

-0.861,0.497,-0.15,-1.404,1.526,-1.831
-0.854,0.511,-0.148,0.366,2.014,-2.258
-0.849,0.508,-0.151,2.014,1.77,-3.235
-0.85,0.499,-0.155,3.052,1.282,-4.028
-0.855,0.485,-0.157,4.456,0.854,-4.395
-0.858,0.471,-0.163,6.226,0.549,-4.456
-0.837,0.448,-0.189,7.507,0.0,-4.761
-0.835,0.432,-0.197,7.019,-0.183,-4.761
-0.834,0.407,-0.201,4.089,0.122,-3.906
-0.836,0.396,-0.198,2.563,0.61,-2.441
-0.831,0.417,-0.163,0.854,0.977,-0.793
-0.811,0.464,-0.183,4.089,-1.892,0.061
-0.815,0.482,-0.189,3.174,-2.502,0.0
-0.829,0.48,-0.185,2.563,-2.38,-0.427
-0.835,0.473,-0.182,2.869,-2.075,-0.61
-0.84,0.465,-0.176,3.357,-1.16,0.0
-0.832,0.449,-0.178,3.845,-1.099,-0.732
-0.832,0.444,-0.176,3.784,-1.343,-1.038
-0.839,0.464,-0.176,0.793,-0.427,-0.305
-0.834,0.452,-0.181,0.732,-0.366,-0.854
-0.823,0.457,-0.185,0.122,-0.305,-0.61
-0.817,0.453,-0.191,-0.183,-0.366,-0.549
-0.835,0.44,-0.183,-2.502,-0.427,-0.122
-0.84,0.45,-0.178,-2.991,0.183,0.061
-0.854,0.476,-0.187,-3.662,0.977,-0.366
-0.849,0.484,-0.187,-6.348,1.526,-0.977
-0.863,0.49,-0.168,-5.92,2.319,-1.77
-0.837,0.482,-0.123,0.793,3.052,-4.7
-0.85,0.454,-0.164,11.23,1.648,-5.737
-0.86,0.413,-0.188,16.724,0.427,-5.798
-0.87,0.394,-0.211,18.86,0.305,-5.005
-0.883,0.367,-0.225,21.484,0.061,-4.822
-0.89,0.375,-0.232,20.935,-0.366,-5.249
-0.899,0.413,-0.26,18.066,1.404,-6.592
-0.91,0.409,-0.267,15.076,2.502,-7.935
-0.911,0.368,-0.219,4.456,6.775,-9.766
-0.943,0.371,-0.185,0.305,10.01,-10.559
-0.959,0.303,-0.182,-1.038,7.812,-11.719
-0.967,0.278,-0.179,-2.502,6.775,-11.353
-0.994,0.248,-0.16,-3.784,5.859,-9.277
-1.008,0.264,-0.165,-0.122,6.287,-7.019
-1.004,0.246,-0.185,5.188,7.141,-4.944
-0.985,0.195,-0.187,11.169,6.226,0.671
-0.984,0.209,-0.186,13.672,6.836,2.197
-0.983,0.233,-0.173,18.494,9.155,4.15
-0.985,0.28,-0.141,19.409,10.742,4.089
-0.99,0.219,-0.129,22.095,13.672,5.31
-1.071,-0.373,0.156,28.503,26.428,73.547
-0.966,-0.276,0.066,38.879,35.217,107.544
-1.197,0.055,-0.307,77.637,-4.333,135.01
-1.338,0.404,-0.305,28.137,-39.185,134.583
-1.264,0.403,-0.166,1.77,-41.321,143.555
-1.409,0.316,-0.078,-21.912,-16.174,164.429
-1.288,0.323,-0.138,-51.086,-17.883,166.199
-1.161,0.391,0.0,-35.889,-13.306,146.118
-1.038,0.377,0.032,-23.254,-20.081,130.554
-0.934,0.356,0.016,-14.465,-31.128,108.887
-0.837,0.259,-0.097,-16.724,-32.227,92.468
-0.785,0.231,-0.126,-24.231,-30.701,75.623
-0.715,0.23,-0.033,-47.302,-16.846,50.476
-0.695,0.243,0.01,-62.805,-4.333,36.255
-0.665,0.229,0.02,-72.754,5.676,18.86
-0.66,0.174,0.065,-70.19,7.324,10.498
-0.704,0.081,0.083,-64.697,14.038,6.897
-0.846,-0.112,0.014,-33.63,23.193,10.803
-0.875,-0.199,-0.048,-29.053,21.362,3.967
-0.88,-0.298,-0.076,-24.658,14.648,0.427
-0.855,-0.298,-0.122,-25.574,7.812,-10.01
-0.835,-0.289,-0.129,-23.376,2.869,-17.273
-0.811,-0.308,-0.047,2.014,-20.264,-36.377
-0.819,-0.339,-0.016,5.859,-20.935,-35.95
-0.883,-0.422,-0.059,12.695,-14.099,-21.057
-1.162,-0.527,-0.212,-1.587,-5.859,-0.122
-0.948,-0.409,-0.227,-12.695,-6.104,4.211
-0.814,0.148,-0.034,-42.542,-8.545,-28.992
-1.311,0.407,0.341,-63.599,7.385,-51.758
-1.526,-0.854,0.601,-104.37,59.509,-38.33
-1.314,-1.518,-0.304,-65.674,29.785,31.189
-2.183,-0.681,-0.572,-15.198,-43.945,22.827
-0.95,0.52,0.011,66.406,-29.785,3.357
-0.169,1.024,-0.117,34.79,13.489,5.005
-0.15,0.407,-0.312,68.115,16.907,14.709
-0.709,-0.276,-0.234,43.213,-52.49,17.395
-1.229,-0.171,-0.177,-2.502,-50.232,7.08
-1.41,-0.175,-0.219,-15.198,-34.546,-3.174
-1.011,-0.214,-0.208,-42.786,-8.972,-3.906
-1.025,-0.083,-0.096,-57.617,8.85,-1.038
-1.071,-0.039,-0.096,-50.415,29.358,-8.118
-1.017,-0.077,-0.099,-46.753,24.414,-12.695
-0.868,-0.026,-0.111,-42.725,13.306,-13.794
-0.786,0.02,-0.081,-29.785,-6.592,-14.16
-0.932,-0.115,-0.053,-9.521,-28.564,-16.602
-0.998,-0.23,-0.084,3.784,-31.738,-14.16
-0.997,-0.264,-0.168,18.677,-25.146,-9.277
-0.974,-0.257,-0.176,23.499,-19.409,-7.69
-0.96,-0.239,-0.193,18.677,-5.249,-6.226
-0.952,-0.188,-0.136,-24.292,17.7,-4.761
-0.999,-0.197,-0.086,-12.329,5.737,-10.681
-0.996,-0.221,-0.113,-14.282,3.662,-9.705
-0.968,-0.204,-0.141,-14.099,0.305,-6.592
-0.933,-0.167,-0.132,-2.93,-2.136,-3.052
-0.958,-0.244,-0.119,5.615,-2.747,1.587
-0.973,-0.264,-0.148,5.249,-1.709,3.723
-0.979,-0.246,-0.168,-0.488,2.747,5.981
-0.961,-0.215,-0.131,-2.38,5.737,5.493
-0.964,-0.206,-0.115,-1.16,5.859,4.883
-0.96,-0.196,-0.08,-3.479,6.775,3.357
-0.956,-0.209,-0.083,-5.249,6.714,2.808
-0.959,-0.213,-0.103,-6.531,4.7,1.892
-0.966,-0.193,-0.103,-4.883,3.235,0.793
-0.96,-0.168,-0.066,-1.587,1.282,-1.465
-0.958,-0.166,-0.054,0.793,1.221,-2.258
-0.961,-0.186,-0.074,4.15,0.183,-3.174
-0.964,-0.193,-0.08,4.944,-0.366,-2.991
-0.962,-0.179,-0.085,5.676,0.488,-2.93
-0.959,-0.172,-0.071,4.089,3.418,-4.517
-0.96,-0.184,-0.072,4.211,4.578,-5.127
-0.974,-0.205,-0.077,3.113,5.676,-5.005
-0.982,-0.169,-0.088,0.0,6.47,-5.066

-1.022,-0.401,-0.124,-11.414,-4.517,25.085
-1.019,-0.423,-0.127,-11.78,-5.127,29.541
-1.015,-0.445,-0.136,-12.512,-6.042,33.997
-1.004,-0.467,-0.147,-13.0,-7.385,38.94
-0.99,-0.486,-0.155,-12.817,-9.583,43.945
-0.942,-0.451,-0.057,-3.723,-12.268,54.382
-0.891,-0.264,0.135,-10.559,9.583,56.58
-0.828,-0.203,0.118,-11.475,19.287,50.476
-0.815,-0.214,0.079,-8.911,18.311,47.363
-0.884,-0.298,-0.001,4.7,2.258,38.635
-0.88,-0.329,-0.005,7.812,0.122,30.701
-0.892,-0.401,-0.048,10.193,-2.502,24.109
-0.938,-0.459,-0.09,15.137,-9.521,18.433
-0.917,-0.341,-0.033,18.738,-13.428,7.324
-0.888,-0.307,-0.037,18.311,-9.521,2.686
-0.857,-0.359,-0.101,16.846,-12.939,-12.512
-0.941,-0.39,-0.131,22.095,-24.292,-18.372
-0.945,-0.322,-0.08,5.249,-17.761,-34.363
-0.964,-0.247,-0.078,5.798,-25.085,-44.678
-0.98,-0.171,-0.042,7.263,-21.912,-53.223
-0.97,-0.149,-0.036,17.456,-23.865,-61.157
-0.963,-0.192,-0.175,19.226,-20.752,-66.895
-0.951,-0.129,-0.183,7.019,-13.733,-61.829
-0.896,-0.06,-0.333,6.287,-8.301,-56.213
-0.899,-0.07,-0.367,5.676,-9.033,-54.932
-0.986,-0.105,-0.306,-25.33,4.517,-49.683
-0.947,0.078,-0.227,-20.447,12.207,-49.011
-0.937,0.116,-0.235,-15.32,10.193,-50.171
-0.92,0.19,-0.241,-2.38,-8.423,-55.42
-0.976,0.223,-0.183,9.949,-16.418,-54.504
-0.969,0.225,-0.175,26.123,-12.939,-52.673
-0.967,0.191,-0.178,31.921,-9.399,-51.819
-0.933,0.024,-0.232,35.095,3.479,-44.373
-0.923,0.011,-0.221,30.884,2.136,-42.847
-0.933,0.036,-0.2,26.306,0.732,-34.058
-0.919,0.155,-0.231,29.663,-1.77,-34.363
-0.919,0.15,-0.227,22.095,-4.028,-34.058
-0.915,0.155,-0.232,20.996,-4.456,-32.654
-0.921,0.173,-0.221,15.198,-5.432,-30.212
-0.918,0.223,-0.21,23.254,-5.066,-29.602
-0.907,0.234,-0.187,28.87,-4.761,-29.785
-0.898,0.266,-0.223,35.767,-7.019,-28.381
-0.807,0.248,-0.279,34.668,-4.639,-30.457
-0.836,0.156,-0.251,10.681,-3.418,-29.114
-0.876,0.232,-0.311,29.236,-11.108,-29.907
-1.08,0.139,-0.434,28.137,-17.029,-31.494
-0.694,0.315,-0.315,21.912,1.831,-11.536
-0.855,0.501,-0.404,25.208,2.38,-4.395
-0.928,0.64,-0.328,24.597,4.15,-2.258
-0.927,0.919,-0.078,10.925,9.033,-11.047
-0.914,0.889,-0.019,4.028,6.165,-18.494
-0.908,0.759,-0.018,5.615,4.822,-21.79
-0.88,0.635,-0.012,10.01,2.38,-20.935
-0.87,0.606,-0.004,12.39,0.0,-17.578
-0.753,0.641,-0.106,33.936,-6.104,-10.254
-0.727,0.576,-0.148,29.175,-10.193,-8.789
-0.723,0.526,-0.197,24.231,-9.766,-5.92
-0.76,0.457,-0.197,16.479,-5.005,-3.967
-0.772,0.441,-0.175,14.099,-1.038,-2.075
-0.832,0.468,-0.129,-3.357,5.493,-2.258
-0.812,0.421,-0.14,-6.836,3.906,-3.601
-0.823,0.38,-0.143,-9.094,1.526,-4.639
-0.94,0.305,-0.125,-21.973,-3.662,-6.897
-0.928,0.324,-0.13,-25.024,-2.747,-5.31
-0.914,0.319,-0.167,-25.452,-1.282,-4.333
-0.891,0.361,-0.182,-25.024,4.395,-0.61
-0.889,0.415,-0.2,-18.799,7.202,-0.488
-0.897,0.427,-0.207,-16.907,8.057,-0.793
-0.897,0.419,-0.185,-15.137,7.629,-1.709
-0.851,0.519,-0.177,-9.155,4.517,-0.366
-0.833,0.487,-0.21,-1.404,2.441,-1.343
-0.829,0.468,-0.202,3.357,1.404,-1.221
-0.837,0.458,-0.195,0.061,-3.54,-1.404
-0.843,0.446,-0.202,9.216,-1.587,-0.488
-0.849,0.419,-0.217,11.23,0.977,-0.488
-0.858,0.405,-0.203,9.033,2.686,-0.854
-0.844,0.395,-0.18,10.01,2.747,-0.977
-0.835,0.399,-0.184,10.193,2.014,-0.977
-0.846,0.387,-0.215,7.263,0.488,-1.343
-0.858,0.401,-0.189,1.343,-0.061,-1.404
-0.852,0.418,-0.18,-3.113,-0.671,-1.465
-0.836,0.417,-0.186,-2.441,-1.343,-1.77
-0.84,0.411,-0.187,-1.709,-1.343,-1.892
-0.843,0.416,-0.197,-1.953,-0.427,-1.343
-0.84,0.417,-0.192,-2.136,0.0,-0.916
-0.833,0.426,-0.183,-3.418,1.343,0.671
-0.829,0.421,-0.178,-2.136,1.526,1.526
-0.84,0.439,-0.198,-2.869,0.488,3.235
-0.826,0.447,-0.182,-4.028,0.549,4.333
-0.821,0.427,-0.172,-5.554,-0.61,4.761
-0.847,0.391,-0.193,-7.141,-2.014,4.028
-0.858,0.378,-0.196,-7.446,-2.502,4.089
-0.899,0.398,-0.175,-8.545,-2.441,3.967
-0.895,0.427,-0.175,-8.484,-1.221,3.906
-0.867,0.461,-0.167,-6.226,0.366,3.357
-0.857,0.466,-0.173,-5.188,0.305,1.465
-0.84,0.433,-0.197,0.427,-0.549,0.549
-0.872,0.404,-0.196,1.648,-0.366,0.305
-0.88,0.426,-0.193,0.122,0.671,0.427
-0.849,0.434,-0.185,0.183,1.892,0.061
-0.842,0.427,-0.184,0.122,1.709,-0.427
-0.852,0.422,-0.19,0.427,0.488,-1.038
-0.854,0.426,-0.193,0.122,-0.244,-1.282
-0.846,0.435,-0.208,0.427,0.488,-1.221
-0.849,0.442,-0.207,0.427,0.854,-1.221
-0.85,0.434,-0.192,1.709,1.526,-1.282
-0.851,0.434,-0.187,1.587,1.77,-1.282
-0.856,0.431,-0.183,2.319,1.16,-1.526
-0.854,0.434,-0.186,2.747,0.793,-1.587
-0.844,0.439,-0.192,1.16,0.793,-1.831
-0.839,0.429,-0.207,2.136,0.488,-2.441
-0.841,0.421,-0.206,0.61,1.16,-2.258
-0.846,0.429,-0.195,-0.671,2.258,-1.465
-0.845,0.435,-0.187,-0.61,2.563,-1.221
-0.849,0.408,-0.196,0.854,1.648,-1.038
-0.846,0.393,-0.192,1.099,1.099,-1.16
-0.843,0.398,-0.192,0.183,1.526,0.0
-0.848,0.407,-0.185,-1.587,0.549,1.465
-0.848,0.427,-0.183,-0.122,0.061,2.502

-0.878,0.421,-0.227,11.23,-0.61,-12.573
-0.864,0.433,-0.23,14.404,-0.793,-15.137
-0.866,0.434,-0.234,16.968,-1.099,-17.578
-0.884,0.424,-0.235,18.799,-1.221,-19.47
-0.908,0.401,-0.23,20.63,-0.854,-20.935
-0.932,0.373,-0.22,22.339,-0.305,-21.484
-0.942,0.348,-0.213,24.353,0.305,-21.545
-0.972,0.326,-0.195,28.32,1.587,-20.752
-1.002,0.31,-0.184,28.748,2.319,-20.386
-1.051,0.249,-0.192,32.288,4.089,-11.475
-1.036,0.224,-0.218,37.292,2.075,-6.958
-1.036,0.193,-0.246,37.781,-1.831,0.122
-1.008,0.147,-0.193,37.231,-0.244,8.301
-1.001,0.125,-0.179,36.56,0.732,11.353
-1.005,0.087,-0.147,32.898,3.174,18.311
-1.009,0.073,-0.131,29.663,4.639,26.001
-1.023,0.01,-0.07,21.057,10.803,34.546
-1.049,-0.024,-0.027,17.273,13.611,40.161
-1.113,-0.125,0.099,11.475,28.32,65.125
-1.13,-0.214,0.177,6.714,35.034,75.562
-1.066,-0.311,0.112,16.846,44.617,106.934
-1.051,-0.145,-0.179,51.514,21.484,126.343
-1.081,-0.006,-0.309,62.988,9.46,130.31
-1.309,0.429,-0.377,23.621,-39.795,129.578
-1.208,0.334,-0.066,-7.751,-25.757,151.123
-1.179,0.274,-0.162,-17.883,-14.343,153.931
-1.173,0.276,-0.171,-20.325,-15.442,151.001
-1.067,0.286,-0.055,-11.047,-19.165,123.413
-0.798,0.123,-0.142,-21.973,-19.836,67.078
-0.762,0.179,-0.028,-76.599,2.686,32.104
-0.705,0.127,0.082,-64.636,19.409,9.949
-0.742,0.062,0.039,-57.251,20.447,11.963
-0.812,-0.05,-0.027,-26.123,12.207,19.47
-0.844,-0.15,-0.106,4.333,-5.92,14.099
-0.905,-0.314,-0.128,23.499,-29.297,-20.63
-0.947,-0.38,-0.128,22.461,-32.227,-21.118
-1.082,-0.52,-0.133,11.169,-31.433,-15.808
-1.062,-0.594,-0.21,-32.654,11.353,-8.911
-0.88,-0.352,-0.2,-58.35,8.423,-15.32
-1.286,0.24,-0.011,-46.387,5.554,-40.283
-1.907,-0.023,0.397,-74.036,18.188,-69.214
-0.598,-0.299,-0.155,-4.456,6.47,28.625
-1.147,0.821,-0.004,24.048,-25.574,-32.288
-0.544,0.074,-0.31,79.529,-7.874,10.376
-1.114,-0.272,-0.231,13.062,-27.527,-0.61
-1.031,-0.039,-0.222,0.916,-9.521,4.089
-0.878,0.06,-0.229,-8.911,-2.686,-3.54
-0.936,0.044,-0.176,-12.329,-0.183,-6.104
-0.987,-0.045,-0.168,-22.888,5.92,-10.803
-0.961,-0.075,-0.176,-38.147,4.395,-10.986
-0.949,-0.075,-0.16,-35.645,0.0,-11.963
-0.945,-0.076,-0.067,-21.179,-4.578,-9.827
-0.945,-0.079,-0.075,-18.555,-4.456,-9.155
-0.966,-0.128,-0.136,-6.714,-2.258,-7.874
-0.984,-0.164,-0.171,-3.235,-0.793,-7.507
-0.983,-0.176,-0.176,-2.258,-0.061,-6.531
-0.949,-0.173,-0.141,-7.751,4.272,-0.793
-0.954,-0.163,-0.135,-7.446,6.165,0.488
-0.972,-0.175,-0.153,-1.892,4.883,-0.488
-0.961,-0.2,-0.109,-2.563,3.174,-1.831
-0.953,-0.202,-0.119,-4.639,3.418,-3.174
-0.978,-0.203,-0.125,-4.7,0.793,-4.883
-0.983,-0.199,-0.136,13.733,0.183,-5.981
-0.957,-0.223,-0.105,4.456,6.104,-6.042
-0.974,-0.258,-0.127,4.639,3.418,-4.761
-0.99,-0.254,-0.13,3.662,2.136,-3.906
-0.993,-0.243,-0.117,1.038,3.662,-1.221
-0.985,-0.228,-0.118,-2.197,4.028,-0.305
-0.976,-0.214,-0.113,-4.395,2.197,0.854
-0.974,-0.21,-0.101,-4.578,1.648,1.099
-0.974,-0.203,-0.101,-4.517,1.16,1.709
-0.99,-0.191,-0.128,-2.258,0.488,3.357
-0.99,-0.187,-0.131,-1.648,-0.061,4.272
-0.989,-0.18,-0.128,0.122,0.305,6.653
-0.965,-0.179,-0.12,0.671,0.61,7.08
-0.948,-0.169,-0.092,0.183,1.099,6.653
-0.945,-0.165,-0.087,0.122,1.465,5.981
-0.963,-0.161,-0.115,-1.892,-0.793,4.211
-0.969,-0.156,-0.117,-1.038,-1.587,3.357
-0.971,-0.158,-0.112,0.244,-1.526,2.258
-0.966,-0.159,-0.095,-0.549,-0.122,1.587
-0.963,-0.163,-0.094,-0.732,0.549,1.526
-0.961,-0.17,-0.12,0.0,0.793,1.404
-0.962,-0.178,-0.13,0.793,0.061,1.587
-0.963,-0.181,-0.136,0.61,-1.221,1.892
-0.969,-0.156,-0.109,0.0,-1.099,1.526
-0.972,-0.154,-0.098,-1.099,-0.671,1.343
-0.976,-0.155,-0.089,-2.441,1.038,1.465
-0.978,-0.161,-0.108,-0.61,2.075,1.709
-0.973,-0.161,-0.113,2.747,0.671,2.258
-0.971,-0.163,-0.101,4.333,0.061,2.319
-0.968,-0.184,-0.077,1.587,1.526,1.099
-0.968,-0.187,-0.093,0.122,1.099,-0.488
-0.961,-0.167,-0.116,0.854,1.221,-0.977
-0.962,-0.165,-0.111,1.587,-0.427,0.061
-0.963,-0.166,-0.078,1.16,1.343,-0.244
-0.964,-0.171,-0.081,0.427,1.587,-0.61
-0.972,-0.18,-0.083,-2.014,1.892,-0.549
-0.974,-0.18,-0.091,-2.502,2.136,-0.916
-0.972,-0.178,-0.098,-1.526,1.282,-1.343
-0.963,-0.169,-0.094,2.014,0.854,-2.319
-0.963,-0.171,-0.099,3.723,0.183,-2.625
-0.966,-0.172,-0.1,2.869,-0.305,-2.319
-0.967,-0.165,-0.092,0.793,0.244,-1.465
-0.975,-0.171,-0.091,0.427,1.038,-1.526
-0.973,-0.181,-0.115,1.77,0.488,-1.221
-0.968,-0.181,-0.11,2.747,0.0,-1.343
-0.965,-0.176,-0.09,3.723,-1.221,-1.526
-0.965,-0.164,-0.086,3.418,-1.16,-1.465
-0.968,-0.167,-0.097,1.526,-0.305,-1.282
-0.97,-0.17,-0.105,1.099,-0.183,-1.16
-0.966,-0.175,-0.117,2.014,0.488,-0.732
-0.969,-0.177,-0.11,1.587,0.244,-0.854
-0.975,-0.186,-0.106,2.136,-0.122,-1.16
-0.974,-0.174,-0.089,1.16,-0.244,-1.282
-0.973,-0.173,-0.092,1.282,0.061,-1.16
-0.938,-0.171,-0.1,1.16,-0.427,-0.854
-0.968,-0.175,-0.112,1.587,-0.488,-0.427
-0.972,-0.176,-0.111,4.272,-1.526,0.0

-1.021,-0.374,-0.118,-6.714,-2.808,21.667
-1.016,-0.384,-0.111,-5.432,-3.418,25.269
-1.008,-0.395,-0.116,-3.845,-3.357,28.564
-1.002,-0.408,-0.118,-2.075,-3.601,31.921
-0.993,-0.413,-0.109,-1.648,-4.395,35.339
-0.983,-0.412,-0.093,-2.319,-5.066,37.964
-0.972,-0.411,-0.075,-3.052,-5.066,39.978
-0.911,-0.375,-0.033,-2.38,-1.038,42.969
-0.891,-0.345,-0.041,2.686,-1.526,39.124
-0.885,-0.332,-0.011,5.981,-7.141,17.273
-0.915,-0.454,-0.092,-1.77,-0.854,7.69
-0.927,-0.43,-0.074,-8.972,-7.202,0.916
-0.889,-0.267,-0.121,6.653,-10.071,-18.494
-0.984,-0.094,-0.185,15.198,-17.334,-58.655
-0.921,-0.048,-0.288,1.648,-11.169,-59.875
-0.985,-0.053,-0.231,-15.869,-0.61,-47.119
-0.977,-0.036,-0.232,-16.907,1.648,-46.143
-0.956,0.008,-0.234,-10.925,6.897,-43.823
-0.964,0.091,-0.211,-3.845,0.366,-45.471
-0.982,0.17,-0.255,51.575,-8.667,-55.481
-0.961,0.025,-0.234,44.861,10.559,-50.293
-0.944,0.076,-0.263,38.879,8.179,-41.748
-0.921,0.137,-0.197,37.048,5.676,-43.762
-0.87,0.116,-0.27,44.678,-10.864,-35.4
-0.928,0.139,-0.325,39.856,-13.245,-30.212
-0.943,0.166,-0.352,29.602,-7.385,-28.198
-0.893,0.263,-0.117,16.663,0.916,-33.997
-0.908,0.248,-0.215,27.527,-6.592,-34.302
-0.909,0.178,-0.234,22.278,-9.888,-33.264
-0.905,0.221,-0.258,13.55,-3.784,-29.541
-0.894,0.321,-0.225,3.54,-1.099,-30.762
-0.886,0.344,-0.222,5.554,0.671,-31.372
-0.86,0.337,-0.197,8.179,-0.854,-32.288
-0.795,0.285,-0.191,14.099,-2.197,-28.259
-0.862,0.44,-0.188,21.423,-3.113,-29.236
-0.88,0.467,-0.19,22.217,-2.014,-31.738
-0.897,0.293,-0.318,25.513,-0.854,-37.72
-0.821,0.152,-0.265,8.545,1.648,-19.897
-0.937,0.554,-0.261,-6.104,9.705,7.568
-0.757,0.966,-0.004,10.498,9.827,-0.793
-0.822,0.877,0.061,23.438,0.122,-13.611
-0.779,0.405,-0.09,19.348,-2.258,-19.592
-0.74,0.369,-0.268,-0.61,7.996,-11.353
-0.804,0.421,-0.212,-14.587,9.338,-7.141
-0.818,0.466,-0.165,-18.921,10.193,-4.944
-0.861,0.551,-0.073,-22.766,9.216,-5.188
-0.869,0.572,-0.047,-21.118,8.423,-5.493
-0.879,0.544,-0.079,-9.216,-0.549,-7.324
-0.89,0.494,-0.102,-12.085,-3.357,-8.057
-0.841,0.494,-0.136,-11.658,1.526,-5.371
-0.827,0.501,-0.182,-8.789,8.057,-2.136
-0.806,0.526,-0.196,-9.521,10.132,-1.16
-0.776,0.51,-0.183,-11.169,8.85,-0.671
-0.828,0.509,-0.144,-9.094,3.662,-1.221
-0.863,0.488,-0.139,-5.92,0.183,-1.709
-0.861,0.477,-0.143,-5.31,0.0,-1.526
-0.825,0.434,-0.167,-4.456,-0.488,-0.916
-0.825,0.465,-0.193,-8.057,-0.183,1.16
-0.841,0.477,-0.17,-9.277,0.061,1.465
-0.856,0.496,-0.155,-9.644,0.793,1.648
-0.85,0.522,-0.127,-3.479,3.235,-0.854
-0.824,0.503,-0.146,0.488,2.136,-1.953
-0.826,0.475,-0.166,1.526,-0.854,-2.747
-0.824,0.48,-0.169,1.831,-0.977,-2.441
-0.824,0.481,-0.184,4.578,0.183,-1.404
-0.829,0.464,-0.179,6.836,1.892,0.732
-0.82,0.467,-0.184,7.263,1.892,1.404
-0.803,0.476,-0.183,5.249,0.244,1.953
-0.804,0.473,-0.174,5.31,-1.038,1.648
-0.808,0.482,-0.174,3.418,-2.014,1.099
-0.823,0.469,-0.179,1.038,-2.38,0.61
-0.832,0.447,-0.176,-2.319,-1.526,1.038
-0.828,0.448,-0.18,-4.333,-0.671,0.366
-0.825,0.451,-0.175,-5.066,-0.427,0.427
-0.821,0.457,-0.169,-4.822,-0.427,0.671
-0.821,0.448,-0.178,-3.784,-1.221,0.366
-0.834,0.445,-0.179,-3.113,-0.977,1.465
-0.834,0.447,-0.183,-2.747,-0.549,1.953
-0.817,0.425,-0.189,-2.441,-0.854,3.662
-0.822,0.424,-0.188,-3.54,-1.099,3.662
-0.838,0.487,-0.165,-4.517,-0.427,3.54
-0.834,0.494,-0.166,-4.028,0.122,3.052
-0.834,0.463,-0.179,-2.38,-0.183,2.014
-0.844,0.483,-0.181,-1.221,0.061,2.197
-0.84,0.491,-0.19,-1.221,-0.122,2.075
-0.827,0.467,-0.192,-0.916,-0.122,1.465
-0.833,0.466,-0.185,-0.244,0.427,1.465
-0.827,0.459,-0.18,-0.488,0.305,2.136
-0.829,0.46,-0.175,0.854,0.183,1.526
-0.837,0.469,-0.181,1.648,0.366,1.038
-0.837,0.468,-0.185,1.282,0.732,0.122
-0.829,0.45,-0.185,0.305,0.488,-0.183
-0.835,0.449,-0.184,-0.854,0.61,-0.122
-0.835,0.453,-0.185,-1.77,0.854,0.061
-0.831,0.457,-0.178,-1.526,1.221,0.61
-0.826,0.452,-0.176,-1.343,0.732,0.916
-0.822,0.441,-0.178,-1.282,0.305,0.977
-0.829,0.439,-0.183,-2.258,-0.244,1.953
-0.836,0.442,-0.184,-2.93,-0.244,2.319
-0.844,0.449,-0.18,-3.662,-0.183,2.441
-0.844,0.466,-0.175,-3.906,0.366,2.014
-0.841,0.487,-0.167,-3.662,0.366,0.366
-0.837,0.488,-0.172,-3.174,0.793,0.0
-0.836,0.464,-0.173,-2.625,1.16,-0.549
-0.842,0.457,-0.181,-2.319,1.465,-0.671
-0.838,0.457,-0.176,-0.977,1.282,-0.549
-0.836,0.459,-0.179,-0.732,1.038,-0.549
-0.836,0.464,-0.179,0.122,0.671,-0.366
-0.833,0.464,-0.183,0.793,0.671,-0.061
-0.83,0.461,-0.185,1.16,0.61,-0.122
-0.834,0.453,-0.183,0.854,0.366,0.061
-0.838,0.443,-0.182,0.732,0.183,0.061
-0.843,0.446,-0.183,0.916,0.305,0.122
-0.843,0.452,-0.182,0.793,0.183,0.0
-0.833,0.457,-0.187,1.404,-0.305,0.061
-0.832,0.454,-0.185,1.282,-0.366,0.0
-0.833,0.446,-0.184,1.648,-0.061,0.244
-0.836,0.438,-0.183,0.732,0.122,0.732
-0.836,0.446,-0.187,-0.061,0.122,0.793

-0.833,0.497,-0.168,2.563,-0.732,1.16
-0.833,0.489,-0.175,3.113,-0.732,0.854
-0.833,0.479,-0.183,3.601,-0.977,0.305
-0.833,0.471,-0.186,3.296,-0.732,-0.183
-0.833,0.463,-0.188,3.052,-0.366,-0.61
-0.836,0.455,-0.19,2.93,-0.122,-0.854
-0.836,0.456,-0.193,2.136,0.305,-1.099
-0.829,0.455,-0.185,-0.183,0.0,-1.343
-0.827,0.454,-0.183,-0.061,-0.244,-1.343
-0.838,0.446,-0.186,0.732,-0.305,-0.977
-0.844,0.438,-0.187,1.526,0.366,-0.793
-0.835,0.435,-0.193,0.061,0.427,-0.427
-0.832,0.437,-0.191,-0.671,0.366,-0.366
-0.832,0.446,-0.19,-1.648,0.183,-0.61
-0.841,0.454,-0.187,-2.136,-0.244,-0.732
-0.836,0.442,-0.19,-0.671,-0.122,-0.305
-0.836,0.437,-0.19,-0.305,-0.366,-0.061
-0.84,0.439,-0.198,-0.488,-0.122,0.977
-0.839,0.447,-0.191,-1.587,-0.366,1.404
-0.834,0.458,-0.183,-1.953,-0.488,1.099
-0.826,0.478,-0.189,-0.977,-0.427,0.549
-0.84,0.451,-0.189,-0.305,0.061,-0.916
-0.834,0.45,-0.193,-0.549,0.366,-1.099
-0.833,0.447,-0.187,-0.732,0.488,-1.038
-0.839,0.453,-0.195,-0.305,0.183,-0.61
-0.831,0.454,-0.19,0.427,0.305,0.0
-0.836,0.455,-0.189,-0.305,0.305,-0.305
-0.837,0.457,-0.188,-0.183,0.732,-0.427
-0.836,0.453,-0.185,-1.282,0.061,-0.671
-0.834,0.466,-0.188,-0.427,0.183,-0.549
-0.834,0.463,-0.19,0.977,0.854,-0.854
-0.832,0.444,-0.194,0.488,0.366,-0.916
-0.839,0.436,-0.195,-0.244,0.183,-0.916
-0.842,0.433,-0.195,-0.671,-0.061,0.0
-0.837,0.437,-0.196,-0.854,-0.244,0.793
-0.835,0.43,-0.199,-0.061,-0.305,2.014
-0.836,0.436,-0.195,-15.625,-0.61,2.991
-0.831,0.472,-0.185,-0.366,-0.061,3.052
-0.827,0.48,-0.184,0.244,-0.305,2.686
-0.83,0.481,-0.188,0.977,0.0,-0.183
-0.836,0.464,-0.186,0.244,0.183,-0.916
-0.838,0.446,-0.193,-0.732,0.0,-0.671
-0.834,0.448,-0.194,-0.61,0.183,-0.61
-0.831,0.456,-0.202,-0.61,0.427,-0.61
-0.832,0.455,-0.19,0.427,0.732,-0.061
-0.836,0.444,-0.192,0.427,0.061,-0.122
-0.839,0.446,-0.193,0.244,-0.122,-0.305
-0.84,0.443,-0.196,0.122,-0.183,-0.244
-0.837,0.448,-0.194,-1.038,0.488,0.305
-0.835,0.448,-0.197,-0.61,0.427,0.488
-0.835,0.453,-0.195,-0.854,0.305,0.061
-0.837,0.458,-0.187,-0.427,0.244,0.061
-0.839,0.449,-0.193,0.671,-0.061,-0.244
-0.837,0.445,-0.197,0.183,-0.061,0.061
-0.834,0.449,-0.191,-0.488,0.305,0.122
-0.836,0.447,-0.187,-0.061,0.183,0.122
-0.841,0.445,-0.199,0.488,-0.549,1.038
-0.835,0.441,-0.197,0.427,-0.854,1.099
-0.836,0.45,-0.192,-0.061,-0.427,1.343
-0.837,0.454,-0.191,0.183,-0.366,1.404
-0.844,0.464,-0.19,1.099,-0.061,1.404
-0.842,0.468,-0.189,0.977,-0.122,1.404
-0.826,0.477,-0.182,0.244,0.427,-0.122
-0.83,0.478,-0.184,0.977,0.366,-0.977
-0.838,0.442,-0.194,1.404,0.0,-1.221
-0.838,0.44,-0.198,1.038,-0.061,-1.221
-0.836,0.44,-0.196,0.122,0.671,-0.61
-0.827,0.443,-0.193,0.61,0.427,-0.244
-0.83,0.445,-0.197,0.854,0.305,0.0
-0.834,0.441,-0.194,1.282,-0.183,0.0
-0.836,0.444,-0.194,0.122,-0.183,0.427
-0.839,0.445,-0.193,0.366,-0.244,-0.244
-0.841,0.446,-0.196,0.0,0.061,-0.488
-0.842,0.451,-0.196,-0.305,0.366,-0.244
-0.83,0.449,-0.192,-0.549,0.366,-0.366
-0.832,0.454,-0.192,-0.793,0.366,-0.427
-0.838,0.449,-0.192,-0.183,0.305,-0.427
-0.839,0.448,-0.193,0.061,0.244,-0.61
-0.836,0.452,-0.195,0.0,0.061,-0.427
-0.838,0.453,-0.193,0.122,0.183,-0.488
-0.834,0.457,-0.194,-0.61,0.305,-0.427
-0.838,0.454,-0.191,-0.244,0.244,-0.671
-0.841,0.454,-0.194,-0.244,0.305,-0.549
-0.837,0.454,-0.187,-0.488,0.488,-0.427
-0.836,0.455,-0.185,-0.122,0.61,-0.427
-0.832,0.456,-0.193,0.732,0.244,-1.038
-0.836,0.455,-0.191,0.793,0.061,-1.16
-0.835,0.454,-0.192,-0.183,0.671,-1.343
-0.834,0.444,-0.19,-0.305,0.61,-1.16
-0.838,0.448,-0.191,-0.671,0.671,-1.099
-0.832,0.453,-0.193,-0.305,0.488,-1.16
-0.833,0.453,-0.192,-0.366,0.427,-1.16
-0.835,0.454,-0.193,-0.549,0.732,-0.61
-0.83,0.462,-0.186,-0.427,0.366,-0.549
-0.831,0.465,-0.185,-0.244,0.427,-0.916
-0.829,0.457,-0.192,0.427,0.427,-1.16
-0.833,0.455,-0.19,-0.061,0.305,-1.221
-0.833,0.448,-0.193,-0.549,0.732,-1.038
-0.837,0.45,-0.193,-1.282,0.793,-0.977
-0.832,0.465,-0.196,-0.183,0.671,-0.977
-0.836,0.459,-0.191,0.244,0.61,-1.16
-0.832,0.446,-0.195,0.0,0.61,-1.038
-0.831,0.445,-0.194,-0.244,0.366,-0.793
-0.833,0.446,-0.2,0.183,0.061,-0.793
-0.837,0.446,-0.2,-0.366,0.122,-0.488
-0.833,0.452,-0.194,-0.549,0.732,-0.305
-0.829,0.457,-0.193,-1.099,0.427,-0.61
-0.83,0.458,-0.194,-0.732,0.305,-0.549
-0.836,0.463,-0.195,-0.488,0.122,-0.793
-0.838,0.463,-0.191,-0.61,0.671,-0.793
-0.836,0.463,-0.191,-0.488,1.038,-0.671
-0.829,0.472,-0.185,-0.061,0.977,-0.732
-0.829,0.472,-0.187,0.549,0.854,-1.038
-0.832,0.478,-0.191,1.282,0.732,-1.038
-0.829,0.471,-0.19,1.526,0.671,-1.282
-0.826,0.471,-0.191,1.831,0.671,-1.343
-0.819,0.466,-0.195,1.831,1.587,-1.404
-0.821,0.461,-0.201,1.831,1.038,-1.404
-0.829,0.459,-0.198,0.977,0.244,-1.587

-0.852,0.51,-0.148,5.005,3.723,-1.16
-0.857,0.503,-0.143,7.507,3.601,-1.282
-0.862,0.511,-0.145,11.047,3.052,-1.221
-0.865,0.524,-0.153,15.198,2.258,-1.16
-0.866,0.539,-0.171,18.86,1.16,-1.404
-0.86,0.522,-0.214,21.973,-0.61,-3.357
-0.871,0.453,-0.216,20.142,-0.549,-4.089
-0.88,0.427,-0.204,17.7,-0.183,-3.845
-0.899,0.394,-0.194,19.348,2.136,-2.319
-0.903,0.402,-0.189,19.043,1.526,-2.197
-0.912,0.41,-0.182,17.761,1.587,-2.502
-0.922,0.374,-0.177,16.174,2.136,-1.221
-0.926,0.381,-0.174,16.785,2.258,-1.038
-0.899,0.384,-0.18,18.982,1.953,-1.038
-0.892,0.455,-0.173,16.052,1.709,-1.343
-0.866,0.43,-0.186,21.79,7.141,-6.226
-0.864,0.405,-0.16,16.541,9.705,-8.789
-0.851,0.395,-0.177,14.587,8.972,-10.986
-0.849,0.38,-0.182,14.465,8.728,-11.23
-0.856,0.358,-0.145,9.583,8.911,-10.193
-0.863,0.341,-0.128,11.658,8.911,-10.01
-0.87,0.307,-0.123,13.062,8.972,-8.789
-0.935,0.226,-0.096,19.287,10.254,6.348
-0.953,0.203,-0.095,21.118,10.254,9.216
-0.983,0.114,-0.046,23.132,11.414,24.475
-0.965,0.002,0.031,29.236,13.062,57.007
-1.127,-0.068,-0.213,42.664,-24.719,137.634
-1.4,0.457,-0.191,-14.221,-37.17,142.029
-1.365,0.477,-0.089,-24.048,-24.536,145.508
-1.312,0.406,-0.04,-27.954,-20.996,148.071
-1.322,0.248,-0.153,-44.495,-27.832,155.09
-1.044,0.188,-0.096,-15.015,-40.161,119.202
-0.864,0.1,-0.079,-28.992,-28.992,82.581
-0.823,0.084,-0.084,-41.26,-27.039,69.214
-0.721,0.134,-0.018,-71.167,-8.423,33.325
-0.63,0.121,0.005,-70.435,3.845,16.235
-0.64,0.033,0.013,-66.65,-0.793,10.498
-0.754,-0.102,-0.067,-33.936,-7.08,7.812
-0.828,-0.192,-0.113,-27.466,-10.01,-1.465
-1.0,-0.594,-0.1,-44.312,10.132,-24.292
-0.888,-0.407,-0.161,-43.03,19.775,-17.822
-0.769,-0.111,-0.048,-33.569,16.724,-27.649
-0.873,0.114,0.058,-35.217,16.296,-44.312
-1.846,0.039,0.366,-39.917,9.46,-51.819
-0.819,0.019,-0.317,0.183,-9.705,-0.366
-1.562,0.122,-0.064,36.865,-41.504,-28.931
-0.882,0.053,-0.17,16.357,-3.662,7.874
-0.657,0.195,-0.254,10.437,4.211,14.221
-0.535,0.131,-0.147,18.616,-4.944,0.854
-0.955,-0.1,-0.153,-11.658,-1.282,-8.606
-0.976,0.007,-0.126,-20.935,3.113,-16.968
-0.974,0.024,-0.13,-20.63,5.005,-16.663
-0.935,-0.011,-0.214,-11.536,2.258,-14.099
-0.923,-0.066,-0.241,-9.338,-3.784,-0.671
-0.932,-0.096,-0.197,-8.667,-4.822,2.197
-0.98,-0.098,-0.128,-12.512,-3.845,8.85
-0.974,-0.101,-0.143,-3.235,-3.052,10.01
-0.96,-0.128,-0.185,8.667,-4.761,11.23
-0.996,-0.157,-0.188,7.568,-3.052,11.414
-0.943,-0.12,-0.189,-6.531,5.066,12.146
-0.958,-0.167,-0.155,-5.493,3.052,8.728
-0.947,-0.189,-0.093,-15.198,4.333,-1.038
-0.947,-0.189,-0.077,-9.644,2.747,-2.502
-0.939,-0.25,-0.043,3.601,0.061,-7.874
-0.965,-0.311,-0.038,4.395,1.221,-10.376
-0.965,-0.269,-0.106,0.0,1.221,-10.986
-0.964,-0.258,-0.129,6.226,0.427,-11.658
-0.983,-0.303,-0.105,11.719,-0.366,-3.723
-0.97,-0.294,-0.09,12.085,-0.244,-1.465
-0.974,-0.296,-0.097,11.047,0.977,1.343
-0.981,-0.299,-0.108,7.629,0.366,2.808
-0.975,-0.289,-0.129,8.667,-0.793,3.418
-0.985,-0.271,-0.141,9.094,-2.808,4.7
-0.973,-0.237,-0.092,4.578,0.122,7.141
-0.964,-0.218,-0.119,5.31,-0.061,7.507
-0.96,-0.219,-0.085,6.775,-0.977,6.714
-0.951,-0.221,-0.08,6.531,-0.488,6.042
-0.954,-0.203,-0.094,4.7,-0.732,4.822
-0.957,-0.197,-0.091,3.662,0.244,4.028
-0.958,-0.204,-0.103,2.502,1.099,3.479
-0.959,-0.205,-0.125,3.906,-0.244,3.113
-0.958,-0.204,-0.099,1.892,-0.61,2.441
-0.96,-0.203,-0.084,1.16,-0.305,2.136
-0.959,-0.188,-0.078,1.038,0.793,0.61
-0.955,-0.195,-0.093,0.916,0.732,0.549
-0.956,-0.203,-0.098,1.831,0.549,0.427
-0.958,-0.207,-0.103,0.793,0.244,0.244
-0.957,-0.212,-0.124,-0.671,0.122,0.854
-0.961,-0.21,-0.127,-0.244,-0.488,1.038
-0.963,-0.191,-0.098,0.977,-0.916,0.793
-0.961,-0.192,-0.089,0.122,1.892,0.549
-0.957,-0.226,-0.113,0.305,1.648,0.305
-0.959,-0.226,-0.113,-0.366,0.427,0.366
-0.964,-0.219,-0.104,0.916,-0.916,-0.366
-0.953,-0.217,-0.107,0.732,0.122,-0.183
-0.954,-0.218,-0.111,0.549,0.061,0.0
-0.958,-0.235,-0.116,-0.366,0.549,-0.122
-0.966,-0.237,-0.12,-1.16,0.366,-0.061
-0.965,-0.22,-0.12,-1.404,-1.038,-0.854
-0.954,-0.218,-0.104,-0.122,-0.854,-1.038
-0.958,-0.225,-0.102,-0.244,-0.427,-0.793
-0.961,-0.227,-0.107,-0.366,1.038,-0.061
-0.959,-0.223,-0.106,0.488,0.0,-0.305
-0.965,-0.245,-0.097,1.16,-0.305,1.343
-0.971,-0.252,-0.114,1.099,0.305,1.404
-0.974,-0.235,-0.113,-0.366,0.061,1.587
-0.952,-0.228,-0.11,-0.916,2.075,1.099
-0.953,-0.229,-0.116,-2.319,1.038,1.587
-0.951,-0.234,-0.118,-2.93,1.099,1.587
-0.966,-0.23,-0.107,0.61,-0.549,1.709
-0.961,-0.225,-0.109,1.465,-0.549,1.587
-0.954,-0.22,-0.131,5.249,-1.282,1.526
-0.957,-0.238,-0.123,4.7,-1.526,1.343
-0.958,-0.238,-0.121,3.296,-1.465,1.404
-0.961,-0.235,-0.115,-0.916,1.16,0.916
-0.958,-0.234,-0.11,-3.357,1.892,0.488
-0.957,-0.236,-0.102,-4.333,1.953,-15.625
-0.958,-0.231,-0.107,-3.967,1.16,-0.854
-0.959,-0.227,-0.109,-3.113,0.732,-0.977

-0.931,0.245,-0.366,33.569,-11.047,-15.869
-0.941,0.241,-0.341,20.63,-6.226,-16.907
-0.932,0.25,-0.3,8.972,-1.038,-18.311
-0.92,0.258,-0.258,1.526,3.418,-19.653
-0.91,0.267,-0.225,-0.793,5.615,-20.935
-0.899,0.285,-0.209,1.282,5.554,-21.973
-0.898,0.366,-0.21,14.343,-3.113,-21.606
-0.885,0.379,-0.2,17.029,-1.892,-21.118
-0.868,0.31,-0.229,20.203,-2.747,-26.367
-0.864,0.293,-0.235,16.174,-3.418,-26.367
-0.843,0.312,-0.231,13.489,-2.502,-25.146
-0.799,0.459,-0.17,7.507,1.099,-35.522
-0.753,0.412,-0.173,7.935,2.197,-39.429
-0.89,0.17,-0.297,6.531,-3.845,-43.152
-0.945,0.381,-0.306,-11.353,5.859,22.156
-0.772,0.374,-0.199,35.095,-3.052,-9.644
-0.836,0.4,-0.145,8.728,8.057,-6.226
-0.841,0.434,-0.113,-0.183,11.902,-4.517
-0.767,0.511,-0.099,-15.076,14.771,-2.563
-0.82,0.542,-0.1,-16.418,5.249,-10.01
-0.892,0.516,-0.051,-17.7,3.54,-11.658
-0.873,0.474,-0.045,-6.775,0.244,-9.46
-0.828,0.424,-0.108,-4.089,-0.549,-2.441
-0.839,0.44,-0.133,-8.057,2.014,4.456
-0.86,0.487,-0.157,-10.315,6.714,2.136
-0.835,0.469,-0.143,-10.376,5.676,1.16
-0.831,0.426,-0.141,-12.939,0.427,0.61
-0.863,0.474,-0.152,-13.672,-1.038,2.686
-0.846,0.416,-0.174,-9.949,3.662,2.075
-0.86,0.472,-0.185,-12.268,1.77,1.099
-0.84,0.447,-0.189,1.953,-1.221,2.686
-0.832,0.408,-0.181,0.916,-1.343,2.136
-0.844,0.424,-0.197,-3.845,-1.587,3.418
-0.838,0.531,-0.122,4.517,-2.258,4.211
-0.841,0.532,-0.137,8.423,-3.601,3.906
-0.847,0.407,-0.168,1.465,-1.282,6.042
-0.838,0.45,-0.194,4.089,-2.93,5.798
-0.859,0.414,-0.202,10.62,-4.7,4.15
-0.866,0.438,-0.177,2.014,0.977,0.549
-0.853,0.448,-0.171,4.272,1.404,-0.488
-0.851,0.457,-0.174,5.981,1.587,-1.16
-0.837,0.429,-0.211,10.62,-0.549,-1.587
-0.843,0.411,-0.213,4.333,0.244,-0.793
-0.842,0.413,-0.205,2.747,1.404,-1.038
-0.848,0.39,-0.187,-0.244,1.343,-0.977
-0.855,0.399,-0.178,-2.075,0.977,-0.977
-0.852,0.426,-0.187,-2.38,0.732,-0.916
-0.856,0.418,-0.193,-2.991,1.221,-0.854
-0.852,0.419,-0.179,-6.47,1.831,-0.854
-0.851,0.424,-0.178,-5.249,1.587,-1.038
-0.848,0.423,-0.178,-4.639,1.282,-0.61
-0.847,0.419,-0.18,-3.54,1.343,-0.488
-0.858,0.441,-0.173,-3.418,1.404,0.366
-0.855,0.446,-0.169,-2.869,1.831,0.427
-0.85,0.453,-0.178,-1.709,1.892,0.122
-0.854,0.442,-0.174,-2.136,1.282,-0.977
-0.853,0.436,-0.175,-2.808,1.282,-1.099
-0.852,0.438,-0.17,-2.258,1.099,-0.916
-0.846,0.428,-0.183,-0.671,1.16,-0.488
-0.851,0.419,-0.184,-0.732,0.671,0.366
-0.853,0.413,-0.182,-0.854,0.61,0.549
-0.842,0.423,-0.189,-2.686,0.366,0.427
-0.841,0.412,-0.19,-3.052,0.061,0.427
-0.854,0.406,-0.191,-6.958,-0.305,0.977
-0.853,0.415,-0.183,-7.507,0.183,1.282
-0.841,0.445,-0.169,-7.263,1.038,0.916
-0.868,0.416,-0.156,-4.7,-1.038,1.587
-0.875,0.458,-0.159,0.549,-0.122,0.916
-0.872,0.453,-0.176,1.587,-0.061,0.732
-0.857,0.431,-0.188,2.747,0.671,0.549
-0.843,0.4,-0.195,-0.244,0.366,0.427
-0.84,0.372,-0.189,-2.136,-0.305,0.977
-0.857,0.398,-0.18,-2.93,-0.122,3.113
-0.855,0.437,-0.184,1.343,-0.61,2.747
-0.854,0.416,-0.191,3.174,-1.038,2.563
-0.867,0.395,-0.187,1.343,-1.343,2.93
-0.854,0.424,-0.195,0.0,0.244,1.404
-0.856,0.405,-0.182,-1.648,-0.183,1.221
-0.864,0.424,-0.18,-2.93,0.671,-0.488
-0.867,0.434,-0.172,-2.136,0.366,-0.854
-0.84,0.445,-0.191,2.563,0.366,-0.916
-0.842,0.419,-0.196,2.625,-0.183,-0.916
-0.863,0.387,-0.184,0.854,-0.61,-0.305
-0.86,0.413,-0.196,-0.122,-0.366,-0.916
-0.864,0.413,-0.192,-0.916,0.061,-0.854
-0.856,0.427,-0.182,0.305,0.549,-1.526
-0.856,0.387,-0.193,0.366,-0.488,-1.587
-0.858,0.383,-0.196,0.061,-0.427,-1.465
-0.848,0.423,-0.196,0.732,0.366,-1.16
-0.857,0.398,-0.199,-0.793,-0.366,-1.282
-0.858,0.432,-0.193,-1.221,-0.061,-1.099
-0.859,0.411,-0.201,2.075,-0.671,-1.221
-0.858,0.418,-0.195,1.953,-0.549,-0.977
-0.841,0.437,-0.19,3.601,0.366,-0.916
-0.843,0.437,-0.192,3.784,-0.488,-0.793
-0.853,0.427,-0.199,1.465,-0.305,-1.099
-0.836,0.422,-0.199,-0.671,0.305,-1.16
-0.844,0.405,-0.203,0.793,-0.244,0.244
-0.852,0.439,-0.195,-2.075,0.366,-1.099
-0.843,0.435,-0.2,-2.502,0.549,-1.343
-0.848,0.408,-0.194,-1.282,0.488,-0.488
-0.846,0.427,-0.193,-1.404,0.549,-0.183
-0.846,0.436,-0.189,-0.061,0.488,-0.183
-0.849,0.447,-0.192,0.427,0.122,-0.671
-0.849,0.407,-0.199,0.488,0.0,-0.671
-0.844,0.389,-0.203,-0.305,0.061,-0.244
-0.841,0.369,-0.211,-1.587,-0.183,0.854
-0.849,0.365,-0.213,-2.136,-0.488,1.587
-0.842,0.46,-0.191,-2.136,0.305,3.357
-0.842,0.475,-0.182,1.221,0.183,2.502
-0.853,0.446,-0.201,4.395,-0.549,1.465
-0.86,0.421,-0.203,2.808,-0.793,0.793
-0.849,0.423,-0.2,-0.244,0.671,-0.183
-0.85,0.426,-0.197,-0.793,0.916,-0.427
-0.849,0.43,-0.197,-0.977,0.916,-0.488
-0.844,0.423,-0.191,-0.061,0.732,0.366
-0.853,0.413,-0.188,0.061,0.427,0.61
-0.85,0.426,-0.195,0.916,0.366,1.099
-0.849,0.427,-0.196,0.671,0.488,0.793

-0.851,0.445,-0.21,3.601,0.732,-1.16
-0.852,0.434,-0.21,3.235,0.61,-1.282
-0.85,0.436,-0.202,1.404,0.916,-1.465
-0.851,0.452,-0.192,-0.244,1.648,-1.465
-0.857,0.468,-0.19,0.244,2.686,-1.77
-0.89,0.436,-0.215,4.7,2.38,-4.211
-0.902,0.406,-0.213,6.592,1.831,-4.211
-0.908,0.426,-0.212,4.395,3.601,-5.493
-0.905,0.424,-0.22,5.005,3.784,-7.019
-0.898,0.397,-0.24,5.493,1.648,-9.216
-0.944,0.345,-0.184,-0.366,3.479,-8.789
-0.958,0.335,-0.174,-0.366,3.296,-8.484
-0.974,0.3,-0.221,9.888,-0.488,-2.686
-0.96,0.353,-0.202,10.864,0.549,-4.578
-0.944,0.376,-0.188,11.963,2.441,-5.127
-0.897,0.382,-0.184,21.851,7.019,-12.878
-0.895,0.365,-0.191,21.912,7.812,-14.221
-0.877,0.261,-0.23,22.034,7.996,-15.869
-0.873,0.236,-0.241,20.264,8.057,-15.503
-0.902,0.2,-0.231,14.648,9.583,-13.916
-0.901,0.178,-0.199,12.451,11.719,-13.733
-0.977,0.03,-0.137,16.174,12.207,8.728
-0.988,-0.039,-0.114,22.278,11.047,20.752
-1.003,-0.128,0.029,28.076,14.465,53.162
-0.982,-0.269,0.106,51.941,27.161,95.215
-1.468,0.188,-0.183,-50.171,-48.279,168.701
-1.078,0.277,-0.087,-39.551,-33.081,134.399
-0.626,0.231,-0.009,-59.631,4.944,0.122
-0.576,0.174,0.052,-55.481,8.362,-15.625
-0.739,-0.192,0.034,-38.086,12.268,-26.672
-0.878,-0.427,-0.105,-56.274,-6.653,-44.189
-1.06,-0.672,-0.218,-21.057,-1.343,-28.259
-1.006,-0.38,-0.283,-9.338,-9.338,-20.142
-0.83,-0.726,-0.379,20.813,-21.912,64.209
-0.609,1.153,-0.035,-19.165,23.743,-16.968
-0.864,0.027,-0.321,60.425,-39.246,-35.217
-1.149,0.076,-0.067,-18.433,9.827,-15.015
-0.875,-0.064,-0.22,-17.212,0.977,-15.137
-1.042,-0.193,-0.175,-40.71,-2.808,-3.784
-1.048,-0.2,-0.112,-27.588,-0.671,5.066
-0.922,-0.178,-0.085,7.812,-6.348,2.258
-0.984,-0.223,-0.172,9.277,-5.31,9.338
-0.964,-0.189,-0.127,2.625,0.732,9.277
-0.944,-0.163,-0.102,-0.793,0.854,5.859
-0.973,-0.17,-0.122,-0.61,2.319,3.052
-0.944,-0.213,-0.103,7.935,2.563,2.625
-0.963,-0.246,-0.123,5.432,2.38,2.136
-0.968,-0.232,-0.122,1.16,2.38,0.122
-0.962,-0.199,-0.102,2.502,2.686,-1.16
-0.958,-0.198,-0.104,2.747,2.625,-1.404
-0.975,-0.24,-0.097,3.296,2.014,-1.099
-0.959,-0.22,-0.088,4.089,-0.916,2.625
-0.997,-0.22,-0.099,8.728,-2.319,3.052
-0.958,-0.222,-0.117,4.883,-0.732,-0.854
-0.966,-0.233,-0.143,-0.122,-1.892,-2.014
-0.954,-0.22,-0.148,-7.568,-1.648,-2.319
-0.968,-0.211,-0.126,-11.658,-1.099,-1.526
-0.959,-0.186,-0.105,-6.531,2.808,-1.465
-0.964,-0.188,-0.156,-1.282,0.183,-1.038
-0.962,-0.192,-0.114,2.686,-1.343,0.122
-0.959,-0.195,-0.13,3.235,-1.099,0.854
-0.965,-0.199,-0.129,1.77,0.732,1.099
-0.965,-0.173,-0.104,-1.648,2.502,-0.244
-0.959,-0.182,-0.127,1.282,-0.916,-2.197
-0.973,-0.208,-0.102,4.15,0.366,-1.465
-0.977,-0.208,-0.131,5.554,-1.282,-0.671
-0.972,-0.196,-0.115,5.615,-0.671,-0.732
-0.957,-0.185,-0.098,2.136,1.404,-0.854
-0.958,-0.181,-0.109,1.404,0.671,-1.465
-0.97,-0.167,-0.111,1.587,-0.916,-2.319
-0.968,-0.174,-0.112,1.526,0.061,-1.953
-0.965,-0.176,-0.11,3.296,0.793,-1.343
-0.965,-0.184,-0.118,0.732,1.831,-1.404
-0.969,-0.182,-0.118,-1.038,0.549,-1.221
-0.963,-0.169,-0.1,-0.427,1.282,-1.526
-0.975,-0.193,-0.119,0.244,1.038,-1.282
-0.973,-0.183,-0.118,1.465,0.366,-1.282
-0.965,-0.162,-0.105,1.16,0.427,-0.305
-0.966,-0.166,-0.113,1.404,0.0,-0.305
-0.968,-0.165,-0.111,-0.671,-0.427,0.061
-0.966,-0.171,-0.113,-0.061,-0.366,0.061
-0.968,-0.172,-0.109,0.061,-0.488,0.0
-0.971,-0.176,-0.107,0.061,-0.183,-0.427
-0.972,-0.188,-0.11,0.427,0.549,-0.244
-0.972,-0.174,-0.105,0.916,0.122,0.061
-0.968,-0.167,-0.104,-1.587,0.427,-0.671
-0.971,-0.163,-0.1,-0.488,0.977,-0.916
-0.969,-0.161,-0.116,1.709,-0.427,-0.244
-0.966,-0.173,-0.11,1.221,0.122,0.0
-0.974,-0.18,-0.11,0.671,0.61,-0.122
-0.97,-0.172,-0.111,1.221,0.305,0.061
-0.962,-0.16,-0.113,1.892,0.916,-0.427
-0.964,-0.163,-0.116,2.319,1.038,0.122
-0.971,-0.17,-0.114,0.854,0.671,0.244
-1.008,-0.184,-0.11,-4.944,-3.235,1.404
-0.966,-0.182,-0.111,1.831,-0.916,-0.305
-0.963,-0.17,-0.118,-0.854,-0.061,0.0
-0.978,-0.171,-0.133,1.831,-0.61,0.061
-0.954,-0.144,-0.108,0.305,1.038,-1.221
-0.967,-0.17,-0.113,0.977,0.854,-1.221
-0.958,-0.174,-0.104,-0.488,1.77,-0.854
-0.972,-0.173,-0.115,0.427,0.732,-1.038
-0.969,-0.17,-0.114,0.671,0.977,-0.977
-0.971,-0.171,-0.117,0.244,0.183,-0.549
-0.969,-0.171,-0.118,0.244,0.488,-0.244
-0.97,-0.165,-0.11,-0.549,1.099,-0.671
-0.959,-0.152,-0.099,-0.977,1.16,-1.16
-0.958,-0.15,-0.102,-0.488,1.16,-1.282
-0.97,-0.148,-0.112,0.122,0.366,-1.526
-0.971,-0.166,-0.112,1.16,1.099,-1.526
-0.968,-0.16,-0.106,-1.099,1.282,-2.747
-0.97,-0.156,-0.109,0.061,0.122,-3.235
-0.998,-0.162,-0.13,2.563,-0.427,-1.831
-0.967,-0.167,-0.111,-1.099,1.648,-1.038
-0.966,-0.145,-0.101,-0.732,0.671,-1.343
-0.968,-0.146,-0.104,1.892,0.061,-1.465
-0.97,-0.141,-0.106,2.075,-0.427,-1.343
-0.972,-0.137,-0.11,2.441,0.854,-1.465
-0.971,-0.145,-0.128,3.54,0.427,-1.16

-0.966,0.181,-0.446,23.682,-4.883,-19.531
-0.959,0.223,-0.391,17.273,-0.793,-15.808
-0.855,0.295,-0.336,16.235,5.432,-11.963
-0.772,0.386,-0.317,23.315,9.277,-8.911
-0.768,0.468,-0.361,30.212,9.399,-7.141
-0.724,0.425,-0.169,-1.831,2.38,-13.123
-0.887,0.578,-0.129,-7.263,7.69,-3.418
-0.88,0.65,-0.038,-5.981,3.784,-9.46
-0.757,0.478,-0.157,0.549,5.31,-3.479
-0.813,0.534,-0.13,-11.719,2.136,-0.488
-0.814,0.524,-0.154,5.737,-4.883,5.127
-0.806,0.457,-0.16,-2.197,-0.305,4.028
-0.846,0.482,-0.143,-10.254,-1.343,3.54
-0.826,0.446,-0.153,1.77,-1.648,2.686
-0.813,0.458,-0.192,9.033,-4.272,0.854
-0.815,0.472,-0.183,-2.014,-1.953,-0.061
-0.819,0.489,-0.165,-1.099,1.221,2.258
-0.81,0.498,-0.178,-3.235,3.54,-4.517
-0.821,0.49,-0.172,-1.099,-0.732,0.0
-0.813,0.504,-0.17,8.423,0.427,0.183
-0.833,0.481,-0.163,-0.793,1.221,-2.136
-0.812,0.459,-0.182,-1.892,0.305,0.244
-0.824,0.483,-0.158,-1.465,-0.305,-1.892
-0.816,0.484,-0.159,-2.686,2.014,-1.404
-0.813,0.503,-0.162,6.531,0.549,0.732
-0.812,0.481,-0.167,-0.488,0.427,-0.122
-0.818,0.488,-0.177,-0.549,-0.061,1.465
-0.824,0.466,-0.18,1.038,-1.343,0.732
-0.832,0.472,-0.189,1.16,-0.122,0.488
-0.828,0.477,-0.163,-1.831,1.465,-0.977
-0.831,0.48,-0.173,-0.977,0.061,-1.099
-0.824,0.499,-0.161,5.859,1.831,-0.793
-0.826,0.477,-0.176,-1.709,-0.366,0.0
-0.821,0.481,-0.174,-1.709,0.244,-0.061
-0.822,0.487,-0.169,0.549,0.671,-0.732
-0.819,0.491,-0.172,1.038,0.122,-0.977
-0.817,0.471,-0.177,0.793,-0.427,-0.977
-0.83,0.473,-0.173,0.305,0.122,-0.916
-0.823,0.496,-0.17,3.601,1.038,-0.427
-0.809,0.487,-0.187,1.343,-0.366,0.427
-0.822,0.472,-0.173,1.221,-1.282,-0.244
-0.829,0.466,-0.182,-0.549,-0.671,0.549
-0.833,0.503,-0.157,-2.563,1.709,-0.671
-0.832,0.508,-0.153,-1.282,0.732,-1.038
-0.821,0.501,-0.17,4.089,0.916,0.0
-0.823,0.482,-0.179,4.7,0.793,-0.122
-0.811,0.492,-0.166,1.099,1.099,0.916
-0.821,0.484,-0.159,-1.465,1.038,0.183
-0.831,0.476,-0.161,-1.404,1.16,1.038
-0.82,0.483,-0.161,-1.465,1.038,1.099
-0.821,0.506,-0.152,0.671,0.793,-0.671
-0.817,0.474,-0.165,0.916,0.183,-0.793
-0.829,0.491,-0.161,-0.549,1.404,-0.427
-0.822,0.474,-0.164,0.244,0.793,-0.488
-0.822,0.483,-0.164,0.366,0.488,-0.244
-0.827,0.475,-0.165,0.366,0.488,-0.122
-0.819,0.479,-0.159,-0.61,0.793,0.183
-0.821,0.475,-0.163,-1.404,1.038,0.488
-0.808,0.44,-0.184,-7.019,-0.671,2.197
-0.805,0.41,-0.199,-10.559,-1.099,4.15
-0.846,0.469,-0.171,-1.16,-1.221,-1.099
-0.821,0.463,-0.176,0.671,-1.343,1.038
-0.833,0.483,-0.183,-0.427,1.648,0.366
-0.82,0.473,-0.185,2.686,0.977,-1.648
-0.819,0.452,-0.197,3.113,0.244,-1.343
-0.828,0.454,-0.18,-0.061,0.61,1.343
-0.835,0.466,-0.18,2.136,-0.854,0.671
-0.827,0.458,-0.188,1.526,1.221,0.549
-0.828,0.471,-0.171,-2.014,0.977,0.122
-0.829,0.46,-0.171,0.061,0.488,0.671
-0.831,0.457,-0.184,-0.061,-15.625,-0.061
-0.84,0.455,-0.177,-1.16,0.183,0.183
-0.829,0.475,-0.184,-0.061,1.099,0.305
-0.832,0.456,-0.188,0.977,-0.061,-0.732
-0.84,0.458,-0.178,-0.305,0.0,0.977
-0.834,0.453,-0.185,0.427,0.305,-0.61
-0.832,0.465,-0.178,0.61,0.366,-0.244
-0.831,0.462,-0.18,0.488,0.549,-0.183
-0.834,0.459,-0.183,-0.122,0.183,-0.122
-0.834,0.465,-0.18,-0.305,0.122,-0.244
-0.83,0.46,-0.188,3.235,0.305,-0.427
-0.833,0.462,-0.18,-0.244,0.366,-0.183
-0.834,0.459,-0.181,0.305,0.916,0.671
-0.831,0.461,-0.178,-0.061,0.916,0.183
-0.829,0.456,-0.182,-0.305,0.427,0.0
-0.827,0.453,-0.194,-0.977,0.122,0.366
-0.823,0.443,-0.208,-7.812,-1.221,0.793
-0.833,0.49,-0.163,-8.484,-15.32,-0.61
-0.842,0.452,-0.166,-5.554,-0.977,-0.366
-0.833,0.459,-0.186,2.136,0.366,-0.183
-0.834,0.451,-0.189,1.526,0.061,-0.305
-0.844,0.456,-0.19,5.432,-0.061,-0.244
-0.839,0.483,-0.195,5.92,1.16,-1.038
-0.819,0.458,-0.188,3.479,0.916,-1.831
-0.828,0.456,-0.179,-0.916,-0.122,0.366
-0.834,0.497,-0.155,-3.723,0.488,0.732
-0.829,0.492,-0.165,-0.305,0.671,-1.587
-0.832,0.452,-0.16,3.601,-1.587,3.662
-0.835,0.436,-0.176,1.648,-1.465,2.93
-0.843,0.485,-0.184,1.831,-0.977,0.671
-0.831,0.458,-0.182,-0.305,0.549,0.0
-0.841,0.499,-0.151,2.38,1.038,-0.61
-0.833,0.466,-0.174,1.831,0.671,-1.953
-0.819,0.481,-0.172,2.686,-0.183,-1.77
-0.826,0.449,-0.183,0.244,-0.488,0.122
-0.824,0.484,-0.175,-1.099,1.221,-0.122
-0.826,0.466,-0.189,1.77,0.061,-0.916
-0.825,0.465,-0.183,1.221,-0.366,-0.854
-0.825,0.463,-0.184,1.038,-0.122,-0.671
-0.825,0.481,-0.177,-0.427,0.61,-0.183
-0.819,0.476,-0.179,-0.183,0.549,-0.671
-0.826,0.482,-0.174,-0.244,0.732,-1.099
-0.788,0.506,-0.163,17.273,1.465,-3.601
-0.822,0.501,-0.157,-1.282,0.977,-0.061
-0.821,0.493,-0.161,0.305,-0.122,-0.305
-0.816,0.482,-0.164,-0.122,0.671,0.183
-0.817,0.486,-0.16,-0.183,0.305,-0.061
-0.82,0.497,-0.159,0.0,1.099,0.366
-0.825,0.476,-0.161,0.305,0.061,0.183

-1.176,-0.221,-0.179,-11.78,13.916,70.068
-1.168,-0.242,-0.19,-12.878,15.991,73.669
-1.131,-0.232,-0.193,-15.32,18.616,77.393
-1.084,-0.207,-0.175,-23.193,21.057,79.834
-1.053,-0.151,-0.159,-32.288,23.682,81.116
-1.038,-0.071,-0.137,-39.124,26.062,81.97
-1.048,0.153,-0.045,-28.809,20.386,72.266
-1.006,0.046,-0.144,24.414,-15.747,55.176
-1.01,-0.111,-0.171,1.16,-5.371,49.988
-0.949,-0.124,-0.102,-26.794,4.028,37.354
-0.946,-0.135,-0.093,-29.846,3.906,35.461
-0.935,-0.161,-0.06,-45.532,9.399,31.311
-0.895,-0.161,-0.042,-54.749,13.55,28.381
-0.886,-0.123,-0.015,-57.19,14.221,24.841
-0.854,-0.076,0.008,-48.096,12.756,19.348
-0.845,-0.082,-0.008,-22.522,6.165,11.597
-0.842,-0.095,-0.007,-15.259,3.845,9.705
-0.903,-0.199,-0.046,5.554,-16.235,-1.282
-0.89,-0.261,-0.128,6.287,-12.817,-6.287
-0.93,-0.263,-0.162,-14.16,-13.062,-8.24
-0.923,-0.318,-0.048,-24.719,3.113,-10.071
-0.879,-0.279,0.021,-32.41,1.831,-12.085
-0.832,-0.214,-0.02,-20.325,-2.93,-16.724
-0.838,-0.181,-0.034,-10.742,-8.423,-21.79
-0.84,-0.081,0.031,-13.794,-6.287,-26.611
-1.089,0.186,0.258,-10.803,4.883,-43.457
-1.206,-0.197,0.283,-6.836,18.066,-49.255
-1.254,-0.465,0.092,-1.343,8.728,-32.227
-1.763,-0.382,-0.34,2.991,-26.55,-18.372
-1.171,0.136,-0.338,18.799,-11.841,-47.241
-0.813,0.205,-0.237,20.752,-3.662,-48.523
-0.668,0.262,-0.089,17.029,19.47,-46.448
-0.928,-0.1,-0.099,-24.048,18.738,-25.024
-0.947,-0.061,-0.141,-21.301,8.972,-19.104
-0.885,0.14,-0.127,-11.414,-7.629,-20.447
-0.953,0.045,-0.023,-0.549,-16.235,-24.902
-1.025,0.009,-0.052,-4.395,-18.982,-20.142
-1.02,0.038,-0.216,-2.563,-9.705,-14.465
-0.975,-0.067,-0.19,2.441,-0.977,-15.137
-1.011,-0.063,-0.073,-5.371,2.991,-7.019
-1.014,-0.065,-0.075,-8.179,-14.099,1.77
-1.009,-0.064,-0.119,0.0,-3.418,5.615
-0.979,-0.021,-0.099,12.085,-7.08,1.404
-0.986,-0.022,-0.077,17.517,-4.456,0.122
-1.005,-0.056,-0.123,17.883,-0.671,3.113
-0.996,-0.097,-0.153,5.493,-0.916,4.456
-0.981,-0.082,-0.141,2.502,-1.343,3.967
-0.972,-0.017,-0.104,-3.479,-0.977,2.502
-0.965,0.018,-0.08,-6.287,4.7,2.869
-0.976,-0.013,-0.072,1.709,4.333,4.578
-0.977,-0.042,-0.082,4.944,2.441,5.554
-0.982,-0.054,-0.091,5.615,0.916,5.676
-0.993,-0.062,-0.1,1.282,-3.845,5.859
-0.986,-0.057,-0.095,1.16,-3.113,5.92
-0.978,-0.064,-0.086,1.038,-1.77,5.615
-0.979,-0.065,-0.084,1.038,-1.16,5.249
-0.979,-0.061,-0.086,2.319,0.793,3.296
-0.972,-0.058,-0.089,1.953,1.953,1.099
-0.973,-0.061,-0.089,0.732,2.319,0.488
-0.98,-0.049,-0.088,-3.418,2.441,-0.793
-0.975,-0.041,-0.085,-4.7,2.563,-1.038
-0.972,-0.012,-0.074,-6.042,2.93,-1.526
-0.974,-0.01,-0.074,-4.089,3.113,-1.587
-0.971,-0.023,-0.079,-0.977,2.441,-1.343
-0.982,-0.045,-0.087,0.854,0.854,-1.16
-0.985,-0.046,-0.09,1.282,0.122,-0.977
-0.981,-0.058,-0.084,1.77,-1.16,-0.183
-0.982,-0.047,-0.088,0.671,-1.221,0.671
-0.979,-0.036,-0.082,0.793,-1.16,0.061
-0.971,-0.034,-0.083,2.441,-0.427,-0.732
-0.972,-0.037,-0.09,1.77,-0.122,-1.16
-0.974,-0.037,-0.093,0.916,-0.244,-1.343
-0.981,-0.04,-0.094,-1.404,0.183,-1.465
-0.981,-0.038,-0.091,-1.465,0.793,-1.587
-0.986,-0.041,-0.088,-0.061,0.854,-1.404
-0.984,-0.045,-0.089,0.549,0.427,-1.221
-0.985,-0.044,-0.097,2.014,-0.793,-0.488
-0.981,-0.038,-0.098,2.441,-1.526,-0.427
-0.977,-0.031,-0.097,2.747,-1.526,-0.671
-0.974,-0.03,-0.098,1.831,-0.854,-0.427
-0.974,-0.034,-0.098,0.549,0.122,-0.488
-0.974,-0.036,-0.098,0.183,0.244,-0.732
-0.972,-0.039,-0.095,0.183,0.427,-0.916
-0.983,-0.047,-0.101,-0.244,-0.122,-1.099
-0.981,-0.051,-0.108,-1.038,-0.427,-0.793
-0.979,-0.06,-0.112,-1.892,-0.122,-0.549
-0.988,-0.059,-0.113,-3.662,0.244,0.061
-0.988,-0.056,-0.111,-4.822,0.366,0.366
-0.978,-0.021,-0.09,-5.737,3.296,-0.854
-0.978,-0.022,-0.092,-4.761,2.93,-1.038
-0.975,-0.036,-0.095,-3.296,2.136,-0.427
-0.981,-0.039,-0.098,-2.869,0.488,0.366
-0.987,-0.028,-0.088,-2.808,0.061,0.488
-0.973,-0.028,-0.091,-0.183,1.526,0.793
-0.973,-0.03,-0.094,0.244,1.282,0.977
-0.982,-0.042,-0.092,0.732,0.183,1.282
-0.984,-0.039,-0.088,1.465,-0.244,0.916
-0.98,-0.045,-0.09,0.549,0.488,1.709
-0.979,-0.044,-0.088,0.244,1.099,1.404
-0.981,-0.044,-0.089,0.854,0.916,0.549
-0.979,-0.047,-0.09,1.099,0.854,0.244
-0.985,-0.051,-0.091,1.038,0.488,0.122
-0.988,-0.049,-0.093,0.244,0.732,0.549
-0.979,-0.044,-0.086,-0.977,1.282,0.793
-0.976,-0.045,-0.085,-0.977,1.282,0.732
-0.978,-0.045,-0.086,-0.977,1.16,0.671
-0.98,-0.041,-0.088,-0.488,0.854,0.183
-0.98,-0.046,-0.08,-0.793,0.916,0.061
-0.979,-0.047,-0.08,-0.977,1.16,0.244
-0.979,-0.046,-0.083,-1.343,1.038,0.61
-0.981,-0.045,-0.085,-1.099,0.671,0.305
-0.978,-0.05,-0.09,-0.488,0.0,0.183
-0.981,-0.051,-0.09,-0.488,-0.061,0.122
-0.987,-0.052,-0.088,-0.244,0.305,0.549
-0.987,-0.055,-0.089,-0.427,0.244,0.549
-0.982,-0.054,-0.086,-0.916,0.305,0.854
-0.981,-0.054,-0.086,-1.465,0.183,1.16
-0.981,-0.039,-0.084,-1.648,0.122,1.404
-0.973,-0.038,-0.081,-0.488,0.61,0.549

-1.099,0.17,-0.508,52.429,-8.789,-29.602
-1.145,0.099,-0.541,42.053,-9.46,-24.109
-0.981,0.101,-0.508,27.832,-4.7,-16.479
-0.785,0.118,-0.422,23.682,1.099,-9.521
-0.672,0.223,-0.364,29.846,2.808,-3.723
-0.706,0.369,-0.397,35.217,3.113,1.709
-1.089,1.315,0.076,27.71,13.489,8.728
-1.022,1.377,0.092,29.968,12.695,-2.136
-0.847,1.168,0.07,20.935,5.188,-12.634
-0.837,1.018,0.049,10.559,-2.563,-12.634
-0.92,0.747,0.109,-3.784,-18.921,-19.958
-0.912,0.646,0.109,1.16,-18.188,-22.4
-0.807,0.501,0.05,29.846,-14.099,-17.273
-0.759,0.469,-0.013,41.077,-12.39,-13.794
-0.759,0.421,-0.219,57.068,-11.353,1.282
-0.772,0.424,-0.214,55.725,-10.071,5.005
-0.814,0.415,-0.167,26.917,-10.559,4.7
-0.874,0.284,-0.169,11.353,-12.146,0.061
-0.927,0.274,-0.111,-4.456,-8.972,0.793
-0.919,0.279,-0.136,-13.428,-7.812,0.549
-0.895,0.367,-0.136,-35.217,-1.892,2.686
-0.91,0.47,-0.135,-33.569,4.944,1.099
-0.888,0.446,-0.136,-22.644,5.188,1.831
-0.873,0.294,-0.195,-4.883,2.625,5.066
-0.893,0.276,-0.168,-2.441,1.16,7.324
-0.838,0.413,-0.233,-1.953,0.916,5.249
-0.837,0.389,-0.216,-4.639,0.183,3.662
-0.872,0.356,-0.215,-8.972,0.122,1.038
-0.887,0.329,-0.214,-8.057,0.427,-0.122
-0.872,0.355,-0.222,-5.188,1.282,1.587
-0.869,0.367,-0.22,-3.601,1.526,2.075
-0.848,0.403,-0.204,-1.404,2.747,2.808
-0.842,0.41,-0.197,-1.648,2.869,1.648
-0.854,0.425,-0.199,0.549,2.258,1.038
-0.864,0.404,-0.206,0.854,1.099,0.549
-0.871,0.36,-0.199,-1.526,-0.244,1.16
-0.877,0.358,-0.189,-1.099,-0.061,1.587
-0.873,0.383,-0.188,1.709,-0.793,1.831
-0.858,0.434,-0.182,2.502,-0.732,0.977
-0.862,0.447,-0.186,2.563,-0.977,0.061
-0.87,0.431,-0.2,2.258,-0.732,-0.977
-0.878,0.386,-0.19,0.61,0.671,-1.038
-0.881,0.38,-0.19,0.427,0.854,-1.099
-0.88,0.385,-0.185,0.061,1.648,-1.038
-0.873,0.398,-0.179,-0.244,2.014,-1.221
-0.862,0.41,-0.176,1.526,2.014,-1.221
-0.862,0.406,-0.181,1.404,1.526,-1.343
-0.867,0.404,-0.175,2.197,0.854,-1.099
-0.869,0.417,-0.19,3.906,0.793,-0.671
-0.868,0.405,-0.184,3.967,-15.32,-0.793
-0.86,0.392,-0.172,2.747,0.305,-0.793
-0.864,0.39,-0.178,2.38,0.366,-0.671
-0.867,0.387,-0.177,2.319,0.305,-0.366
-0.87,0.381,-0.192,2.869,0.488,-0.549
-0.878,0.374,-0.183,1.526,1.16,-0.305
-0.876,0.385,-0.178,0.549,1.831,-0.549
-0.868,0.414,-0.168,1.221,2.319,-0.732
-0.866,0.423,-0.164,1.587,2.075,-0.854
-0.866,0.417,-0.164,3.967,1.526,-1.648
-0.876,0.403,-0.171,3.784,1.343,-2.136
-0.868,0.396,-0.155,-0.061,4.211,-2.625
-0.867,0.396,-0.153,-1.038,4.761,-2.808
-0.864,0.403,-0.163,-2.563,5.249,-2.991
-0.864,0.414,-0.167,-3.662,4.944,-3.296
-0.85,0.409,-0.161,-5.798,4.272,-4.517
-0.846,0.391,-0.17,-6.348,3.662,-4.395
-0.873,0.377,-0.159,-8.362,2.197,-1.404
-0.852,0.41,-0.165,-5.859,2.441,-0.977
-0.846,0.412,-0.158,-4.944,1.587,-0.61
-0.868,0.381,-0.169,-2.38,-0.793,0.793
-0.879,0.382,-0.16,-2.563,-1.16,1.221
-0.88,0.404,-0.148,-1.221,-0.244,1.709
-0.863,0.395,-0.179,1.709,0.671,1.16
-0.87,0.368,-0.178,-1.648,0.183,0.732
-0.884,0.389,-0.164,-2.686,0.366,0.793
-0.875,0.437,-0.154,-2.686,1.587,0.671
-0.873,0.446,-0.155,-2.625,1.648,0.0
-0.863,0.442,-0.138,0.854,1.953,-1.038
-0.857,0.44,-0.146,1.587,2.014,-0.977
-0.857,0.403,-0.164,2.075,0.305,-0.854
-0.865,0.391,-0.171,0.366,-0.732,-0.549
-0.869,0.408,-0.171,-1.892,-0.854,-0.305
-0.867,0.425,-0.162,-2.258,-0.549,-0.183
-0.859,0.48,-0.158,-2.258,0.671,-1.282
-0.862,0.477,-0.151,-2.197,0.854,-1.953
-0.86,0.448,-0.156,-0.488,1.16,-3.479
-0.869,0.434,-0.155,-1.099,0.244,-4.089
-0.872,0.408,-0.145,-1.77,1.953,-4.272
-0.871,0.395,-0.15,-1.282,2.136,-4.395
-0.876,0.379,-0.168,-1.221,1.831,-3.967
-0.872,0.381,-0.166,-1.343,1.343,-3.54
-0.85,0.392,-0.174,-1.16,0.854,-2.563
-0.849,0.388,-0.177,-1.404,0.061,-1.648
-0.861,0.388,-0.164,-0.671,-0.122,-1.221
-0.867,0.383,-0.168,-1.587,-0.061,-0.671
-0.867,0.346,-0.167,-0.366,-0.671,0.61
-0.852,0.413,-0.177,1.953,-0.671,1.831
-0.865,0.38,-0.169,2.075,-1.709,1.953
-0.867,0.387,-0.186,1.221,-1.709,2.319
-0.875,0.397,-0.182,0.061,-1.343,2.258
-0.861,0.431,-0.168,0.366,0.305,1.892
-0.86,0.438,-0.17,1.526,0.061,1.465
-0.848,0.429,-0.172,2.441,-0.305,-0.671
-0.849,0.396,-0.177,2.38,-0.549,-0.732
-0.864,0.387,-0.174,0.854,-0.793,0.488
-0.86,0.401,-0.184,0.427,0.183,0.427
-0.863,0.397,-0.171,0.244,-0.122,0.488
-0.853,0.429,-0.164,3.052,-0.244,0.671
-0.857,0.407,-0.168,3.662,-0.793,0.488
-0.861,0.392,-0.163,2.625,-0.549,1.953
-0.863,0.399,-0.174,4.211,-0.305,1.831
-0.863,0.397,-0.193,3.784,-1.221,1.77
-0.862,0.397,-0.183,2.563,-1.526,2.136
-0.865,0.406,-0.176,1.404,-1.16,2.319
-0.87,0.409,-0.166,1.526,-0.671,2.014
-0.867,0.419,-0.166,2.808,-0.732,1.77
-0.864,0.425,-0.167,3.052,-0.854,1.587
-0.865,0.413,-0.171,4.028,-1.282,1.282
-0.865,0.41,-0.167,3.113,-1.16,1.221

-0.872,0.445,-0.189,6.226,-2.014,0.427
-0.876,0.429,-0.193,5.859,-1.892,-0.061
-0.872,0.411,-0.192,5.005,-1.282,-0.183
-0.865,0.399,-0.189,3.296,-0.977,-0.305
-0.861,0.39,-0.195,1.892,-0.427,-0.305
-0.864,0.378,-0.198,0.305,-0.122,-0.122
-0.866,0.359,-0.169,-3.967,0.0,0.549
-0.862,0.375,-0.175,-4.333,-0.061,0.793
-0.864,0.388,-0.181,-2.502,-0.732,1.221
-0.861,0.393,-0.178,-0.366,-1.343,1.953
-0.861,0.387,-0.187,0.732,-2.136,3.479
-0.866,0.379,-0.183,3.235,-2.625,4.333
-0.869,0.365,-0.237,8.118,-5.005,7.507
-0.859,0.392,-0.229,6.592,-4.944,8.484
-0.857,0.417,-0.208,6.836,-4.944,7.874
-0.864,0.432,-0.201,6.409,-4.822,6.653
-0.873,0.453,-0.191,6.531,-2.93,4.761
-0.875,0.451,-0.182,5.31,-2.686,3.54
-0.883,0.434,-0.172,6.409,-1.465,2.014
-0.875,0.428,-0.177,4.944,-0.854,0.488
-0.871,0.419,-0.179,4.395,-0.671,-0.977
-0.865,0.418,-0.184,4.272,-0.549,-1.221
-0.862,0.423,-0.184,2.747,-0.549,-1.587
-0.863,0.419,-0.18,2.625,-0.427,-1.648
-0.859,0.405,-0.186,3.113,-0.305,-1.892
-0.861,0.398,-0.182,2.93,-0.366,-1.465
-0.857,0.386,-0.182,3.052,-0.427,-1.282
-0.854,0.383,-0.183,2.991,-0.732,-1.343
-0.852,0.386,-0.177,1.343,0.0,-1.221
-0.861,0.381,-0.176,1.099,0.244,-1.282
-0.873,0.372,-0.185,0.366,0.122,-1.221
-0.866,0.385,-0.184,-0.732,0.549,0.183
-0.862,0.397,-0.191,-1.587,0.854,0.244
-0.856,0.402,-0.186,-1.465,1.221,0.183
-0.868,0.384,-0.19,-0.793,1.038,-0.183
-0.871,0.378,-0.196,-0.549,0.793,-0.122
-0.871,0.378,-0.199,-2.258,0.183,0.793
-0.868,0.378,-0.19,-2.747,0.122,0.671
-0.869,0.402,-0.182,-3.54,0.427,0.732
-0.871,0.413,-0.181,-2.93,0.854,0.854
-0.862,0.429,-0.175,-0.122,0.488,0.061
-0.86,0.425,-0.179,0.977,0.061,-0.366
-0.862,0.413,-0.182,2.136,-0.549,-0.305
-0.869,0.387,-0.194,2.686,-0.671,-0.427
-0.874,0.38,-0.191,1.404,0.0,-0.183
-0.872,0.386,-0.183,0.549,0.0,-0.244
-0.859,0.406,-0.184,-0.183,0.671,-0.977
-0.856,0.401,-0.183,0.244,0.427,-1.221
-0.864,0.382,-0.182,-0.977,1.038,-1.221
-0.867,0.358,-0.179,-1.465,1.099,-0.793
-0.872,0.361,-0.184,-1.77,1.221,-0.366
-0.872,0.376,-0.184,-3.662,0.549,-0.793
-0.87,0.379,-0.188,-3.784,0.427,-0.977
-0.875,0.385,-0.181,-3.845,0.671,-0.305
-0.872,0.398,-0.183,-3.601,0.549,0.122
-0.873,0.415,-0.179,-1.77,0.183,-0.244
-0.873,0.42,-0.18,-0.977,0.488,-0.366
-0.868,0.426,-0.181,-0.488,0.916,-0.549
-0.864,0.417,-0.185,0.061,0.671,-1.099
-0.868,0.408,-0.183,-0.061,0.305,-1.282
-0.873,0.401,-0.185,-0.793,0.305,-1.404
-0.871,0.397,-0.179,-0.549,0.488,-1.404
-0.87,0.398,-0.177,0.671,0.793,-1.16
-0.866,0.404,-0.181,1.343,0.244,-1.16
-0.872,0.395,-0.186,2.563,-0.488,-1.038
-0.876,0.39,-0.185,2.991,-0.671,-0.671
-0.872,0.399,-0.184,2.747,-0.732,0.244
-0.865,0.415,-0.184,2.808,-0.427,0.122
-0.864,0.422,-0.182,3.357,-0.366,-0.427
-0.86,0.428,-0.183,2.808,0.183,-1.282
-0.858,0.425,-0.183,2.93,0.549,-1.465
-0.853,0.413,-0.18,2.502,0.977,-1.709
-0.859,0.403,-0.183,1.648,0.916,-2.014
-0.863,0.396,-0.186,1.465,0.977,-1.831
-0.854,0.383,-0.185,0.61,0.549,-1.404
-0.856,0.379,-0.187,0.732,0.549,-1.343
-0.857,0.376,-0.194,1.099,0.366,0.854
-0.857,0.379,-0.183,0.977,-0.305,0.977
-0.859,0.393,-0.184,0.488,0.0,1.343
-0.859,0.401,-0.187,0.671,0.0,1.404
-0.869,0.394,-0.193,1.953,-0.061,1.648
-0.873,0.394,-0.198,1.648,-0.122,1.648
-0.863,0.413,-0.184,-0.977,0.732,1.282
-0.863,0.411,-0.184,-1.221,0.854,0.793
-0.866,0.403,-0.182,-1.16,1.282,-0.061
-0.867,0.404,-0.182,-1.221,1.16,-0.244
-0.859,0.387,-0.183,-1.099,1.221,0.061
-0.857,0.38,-0.184,-0.977,1.16,0.366
-0.862,0.384,-0.191,-0.793,0.793,1.221
-0.863,0.395,-0.19,-1.465,0.793,1.343
-0.86,0.413,-0.179,-2.014,0.61,1.526
-0.855,0.417,-0.178,-1.953,0.488,1.282
-0.867,0.404,-0.189,-0.671,-0.305,1.038
-0.874,0.402,-0.178,-0.549,0.793,0.977
-0.867,0.4,-0.177,-1.038,0.793,0.732
-0.868,0.406,-0.185,-1.831,0.427,0.122
-0.868,0.403,-0.188,-1.16,0.732,-0.305
-0.867,0.4,-0.184,-1.038,0.916,-0.366
-0.864,0.404,-0.176,-1.282,0.977,-0.061
-0.866,0.4,-0.183,-0.977,-0.061,-0.488
-0.87,0.401,-0.18,-0.122,0.0,-0.305
-0.866,0.406,-0.183,0.427,0.305,0.183
-0.863,0.405,-0.18,-0.244,0.183,0.122
-0.865,0.408,-0.177,-1.099,0.183,-0.671
-0.866,0.394,-0.182,0.061,0.305,-0.305
-0.866,0.396,-0.183,0.122,0.183,0.122
-0.864,0.399,-0.182,0.244,0.366,0.122
-0.862,0.403,-0.183,-0.854,0.366,0.0
-0.861,0.398,-0.181,-0.488,0.122,-0.244
-0.864,0.39,-0.185,0.427,0.183,-0.305
-0.865,0.389,-0.186,0.427,0.183,-0.061
-0.869,0.393,-0.19,0.488,0.0,0.0
-0.865,0.397,-0.186,-0.183,0.488,0.061
-0.866,0.402,-0.185,-0.427,0.366,0.122
-0.865,0.412,-0.18,-0.916,0.122,-0.366
-0.863,0.414,-0.181,-0.427,0.244,-0.61
-0.862,0.405,-0.181,-0.183,0.732,-0.427
-0.863,0.396,-0.185,0.61,0.305,-0.671
-0.867,0.385,-0.187,-0.183,-0.488,-0.488

-0.856,0.416,-0.216,-6.226,-1.709,0.244
-0.859,0.406,-0.198,-8.179,-1.648,-0.183
-0.863,0.404,-0.182,-9.583,-1.16,-0.366
-0.864,0.413,-0.17,-10.376,-0.305,-0.366
-0.868,0.423,-0.17,-10.132,0.0,-0.549
-0.872,0.426,-0.18,-9.644,0.0,-0.854
-0.874,0.396,-0.174,-8.728,-0.061,-1.404
-0.883,0.375,-0.167,-5.92,1.465,-1.892
-0.878,0.337,-0.222,1.404,0.122,-2.563
-0.885,0.319,-0.231,3.784,-0.061,-2.014
-0.889,0.327,-0.22,4.211,0.305,-1.953
-0.896,0.359,-0.206,8.423,1.587,-2.563
-0.906,0.366,-0.241,12.878,1.892,-3.662
-0.931,0.393,-0.207,14.954,2.869,-4.15
-0.926,0.411,-0.212,15.137,3.601,-4.639
-0.937,0.367,-0.222,17.944,2.991,-8.667
-0.96,0.346,-0.212,16.663,3.357,-9.766
-0.973,0.324,-0.205,15.808,5.737,-9.399
-0.978,0.334,-0.204,14.221,7.08,-8.728
-0.98,0.385,-0.184,12.817,9.094,-8.85
-0.971,0.382,-0.193,13.306,9.216,-9.277
-0.973,0.354,-0.203,17.273,7.324,-7.751
-0.947,0.381,-0.193,20.02,7.263,-9.033
-0.929,0.379,-0.194,22.644,7.385,-9.583
-0.905,0.378,-0.188,26.184,8.667,-9.46
-0.898,0.371,-0.191,27.161,9.338,-9.827
-0.865,0.33,-0.205,29.907,10.498,-10.986
-0.883,0.2,-0.224,26.855,9.827,-11.353
-0.94,0.105,-0.161,27.039,13.184,-3.723
-0.953,0.123,-0.138,32.104,14.709,2.625
-0.961,0.126,-0.113,35.828,14.282,6.714
-1.001,0.016,-0.026,45.166,11.169,27.588
-1.003,-0.068,0.061,39.734,15.076,51.208
-1.01,-0.131,0.092,39.062,18.982,63.965
-1.005,-0.144,0.078,42.847,20.874,71.838
-0.996,-0.125,-0.069,37.231,8.179,97.778
-1.167,0.319,-0.208,-11.841,-19.47,109.253
-1.152,0.227,-0.03,-35.4,-21.973,113.525
-1.05,0.16,-0.032,-17.822,-24.353,84.534
-0.95,0.128,-0.048,-24.536,-17.151,75.073
-0.904,0.1,-0.079,-31.86,-16.785,66.772
-0.868,0.089,-0.107,-41.199,-17.273,54.871
-0.842,0.019,-0.104,-39.246,-16.785,43.152
-0.85,-0.01,-0.097,-34.973,-18.921,42.297
-0.86,-0.198,-0.094,-40.833,-7.263,28.381
-0.827,-0.173,-0.081,-38.757,-4.028,12.39
-0.841,-0.182,-0.101,-36.316,-6.775,-12.573
-0.864,-0.195,-0.072,-40.039,-6.165,-13.855
-0.922,-0.271,-0.075,-42.786,0.183,-17.212
-0.929,-0.386,-0.092,-43.274,1.221,-19.165
-0.929,-0.261,-0.219,-32.959,-15.015,-27.283
-1.417,0.125,0.129,40.222,-20.325,-20.386
-1.046,0.421,-0.059,55.298,10.437,-6.775
-0.415,0.281,-0.148,56.213,0.793,-10.559
-0.958,-0.245,-0.281,17.761,-28.564,-8.667
-0.973,-0.128,-0.153,-14.709,-4.333,-22.095
-1.006,-0.185,-0.206,-42.542,12.39,-26.428
-0.975,-0.164,-0.225,-48.096,16.418,-21.667
-0.978,-0.12,-0.14,-0.549,-7.019,6.226
-0.984,-0.139,-0.095,-6.958,3.235,5.615
-0.969,-0.118,-0.059,-7.629,2.808,3.357
-0.966,-0.112,-0.084,-1.526,1.099,3.052
-0.958,-0.133,-0.099,7.263,-3.113,3.418
-0.967,-0.157,-0.108,7.385,-3.418,4.761
-0.985,-0.186,-0.066,5.737,-1.831,4.639
-0.971,-0.164,-0.072,2.075,1.221,1.892
-0.967,-0.159,-0.099,1.892,2.136,0.793
-0.955,-0.17,-0.101,4.761,0.366,-0.61
-0.978,-0.202,-0.111,3.784,-0.732,0.183
-0.99,-0.201,-0.072,-0.061,0.0,1.892
-0.976,-0.203,-0.084,6.836,-1.221,1.709
-0.967,-0.186,-0.093,5.493,-0.427,1.831
-0.971,-0.195,-0.11,2.197,0.183,1.526
-0.974,-0.198,-0.109,2.075,-0.244,1.282
-0.972,-0.183,-0.089,1.831,0.977,-0.549
-0.969,-0.176,-0.089,0.366,1.404,-1.282
-0.97,-0.178,-0.094,-0.122,1.465,-1.343
-0.971,-0.184,-0.088,-1.343,0.671,-1.343
-0.974,-0.181,-0.082,-1.953,0.793,-1.343
-0.973,-0.168,-0.071,-2.747,1.282,-1.465
-0.968,-0.173,-0.081,-1.282,0.854,-1.465
-0.972,-0.187,-0.098,1.038,-0.305,-0.732
-0.971,-0.177,-0.098,1.16,-1.282,0.0
-0.974,-0.173,-0.079,1.282,0.244,0.183
-0.971,-0.194,-0.105,-0.122,-0.366,1.77
-0.972,-0.192,-0.099,0.183,-0.549,1.953
-0.97,-0.186,-0.092,-1.648,0.427,1.404
-0.966,-0.181,-0.098,-2.075,0.488,1.16
-0.972,-0.165,-0.097,-3.174,-0.488,0.793
-0.978,-0.149,-0.1,-3.784,0.854,0.488
-0.963,-0.136,-0.093,-3.906,0.549,-0.305
-0.971,-0.169,-0.098,-0.427,0.122,-0.854
-0.976,-0.173,-0.097,0.122,-0.488,-0.732
-0.966,-0.177,-0.098,1.892,-0.244,-0.366
-0.963,-0.162,-0.118,2.075,-1.465,0.732
-0.974,-0.166,-0.109,2.38,-1.404,2.136
-0.973,-0.178,-0.095,1.038,0.244,1.77
-0.974,-0.173,-0.087,-1.221,1.587,0.122
-0.972,-0.172,-0.089,-1.099,1.77,0.061
-0.966,-0.18,-0.099,-0.183,1.404,-0.244
-0.964,-0.172,-0.098,-0.732,0.977,-0.61
-0.965,-0.176,-0.099,-1.343,1.343,-0.61
-0.974,-0.179,-0.097,-0.732,0.854,-0.061
-0.975,-0.178,-0.093,-1.099,0.61,0.0
-0.969,-0.18,-0.087,0.305,0.977,-0.061
-0.972,-0.185,-0.108,1.465,-0.854,0.061
-0.969,-0.174,-0.096,0.61,0.305,0.427
-0.967,-0.172,-0.096,-0.061,0.671,0.305
-0.97,-0.183,-0.091,0.305,-0.183,1.953
-0.972,-0.189,-0.092,0.122,-0.732,2.319
-0.97,-0.19,-0.088,-0.183,-0.671,2.625
-0.971,-0.193,-0.104,0.61,-0.122,3.601
-0.964,-0.182,-0.108,-0.549,0.244,2.93
-0.966,-0.174,-0.091,0.977,-0.488,2.319
-0.964,-0.181,-0.104,1.038,-0.244,2.014
-0.967,-0.179,-0.092,-1.099,0.732,0.122
-0.969,-0.185,-0.09,-1.221,0.0,0.061
-0.967,-0.186,-0.098,0.305,-0.183,1.038
-0.962,-0.182,-0.113,0.61,-0.427,0.305

-1.033,0.296,-0.39,54.565,2.136,-37.048
-1.136,0.258,-0.396,48.462,1.221,-35.217
-1.116,0.28,-0.332,36.621,4.822,-29.968
-1.03,0.3,-0.235,28.442,11.536,-24.109
-0.98,0.354,-0.156,27.649,17.029,-19.592
-1.001,0.63,-0.139,32.41,17.151,-14.648
-0.992,0.706,-0.112,32.227,15.686,-15.076
-0.901,0.705,-0.004,39.49,4.272,-20.874
-0.763,0.488,-0.042,41.931,4.15,-17.09
-0.716,0.458,-0.067,37.476,6.531,-13.489
-0.715,0.578,-0.048,9.155,10.498,-12.024
-0.718,0.529,-0.03,-10.315,10.01,-16.602
-0.785,0.545,0.019,-13.428,3.662,-10.254
-0.776,0.538,0.013,-3.845,2.075,-6.47
-0.802,0.533,0.002,-2.38,1.831,-5.798
-0.827,0.48,-0.072,-16.724,8.667,-2.991
-0.813,0.501,-0.076,-24.109,10.498,-2.319
-0.766,0.537,-0.073,-28.259,6.714,-1.282
-0.769,0.549,-0.059,-28.87,5.798,-1.099
-0.807,0.564,-0.048,-2.441,-0.732,-2.197
-0.825,0.512,-0.089,2.258,-1.526,-1.831
-0.803,0.496,-0.078,-3.479,-0.366,1.404
-0.805,0.517,-0.105,-0.916,-1.038,3.174
-0.81,0.527,-0.09,-1.953,-1.343,2.747
-0.8,0.522,-0.085,-0.793,-0.671,1.404
-0.816,0.531,-0.065,0.854,-0.122,-0.183
-0.801,0.508,-0.077,2.319,-0.732,-0.854
-0.805,0.5,-0.077,1.465,-0.916,-0.854
-0.821,0.518,-0.075,0.793,0.122,-0.61
-0.808,0.516,-0.083,1.282,1.709,-0.244
-0.806,0.516,-0.086,1.038,2.075,0.183
-0.808,0.523,-0.079,1.038,1.709,1.038
-0.792,0.543,-0.093,1.038,1.526,0.183
-0.778,0.503,-0.112,-1.465,1.221,0.183
-0.785,0.514,-0.107,-3.418,2.014,0.549
-0.787,0.52,-0.106,-3.967,2.075,0.0
-0.786,0.534,-0.094,-3.906,1.648,-0.183
-0.817,0.529,-0.077,-1.099,0.305,-1.221
-0.816,0.516,-0.083,-0.305,0.854,-1.038
-0.82,0.503,-0.089,-0.305,1.099,-0.854
-0.818,0.51,-0.097,-1.831,1.343,-0.488
-0.808,0.536,-0.064,-1.648,1.282,-1.282
-0.809,0.528,-0.071,3.479,0.427,-2.014
-0.812,0.494,-0.078,2.502,-0.061,-1.526
-0.824,0.496,-0.08,1.587,-0.488,-0.61
-0.825,0.495,-0.069,1.77,-0.793,-0.488
-0.825,0.507,-0.07,2.258,-0.61,0.0
-0.821,0.52,-0.069,4.761,-0.916,1.282
-0.815,0.51,-0.071,4.028,-0.244,0.366
-0.814,0.506,-0.077,3.845,-0.244,0.366
-0.809,0.499,-0.075,2.808,-0.061,0.488
-0.806,0.525,-0.077,-0.305,0.427,0.488
-0.803,0.525,-0.076,-1.038,0.244,0.305
-0.801,0.525,-0.074,-1.526,0.61,-0.183
-0.811,0.53,-0.069,-0.305,0.488,-0.61
-0.805,0.52,-0.073,-0.366,0.366,-0.427
-0.804,0.52,-0.072,-0.122,0.488,-0.305
-0.804,0.516,-0.075,-0.61,-0.305,-0.122
-0.807,0.518,-0.075,-0.305,-0.122,-0.366
-0.81,0.521,-0.074,-0.427,0.0,-0.427
-0.813,0.522,-0.065,-0.488,0.061,-0.793
-0.813,0.514,-0.067,0.427,0.488,-0.671
-0.806,0.512,-0.073,0.793,0.427,0.183
-0.806,0.516,-0.074,0.61,0.488,0.0
-0.802,0.528,-0.077,-0.732,0.183,-0.183
-0.805,0.533,-0.072,-0.793,0.061,-0.183
-0.804,0.527,-0.081,0.122,0.366,0.183
-0.803,0.526,-0.082,0.061,0.183,0.183
-0.807,0.53,-0.077,-0.122,0.183,0.183
-0.804,0.521,-0.077,-0.61,0.549,-0.305
-0.803,0.522,-0.081,-0.732,0.977,-0.427
-0.805,0.52,-0.083,-0.854,1.16,-0.427
-0.805,0.52,-0.079,-1.16,0.732,-0.732
-0.805,0.516,-0.077,-0.977,0.305,-0.793
-0.808,0.517,-0.077,-0.244,0.488,-0.671
-0.818,0.513,-0.078,0.427,0.122,-0.366
-0.816,0.513,-0.071,0.488,0.122,-0.183
-0.816,0.509,-0.072,1.16,0.305,0.0
-0.819,0.501,-0.074,1.16,0.305,0.183
-0.819,0.501,-0.073,1.099,0.183,0.488
-0.817,0.506,-0.072,1.587,-0.122,1.038
-0.808,0.505,-0.072,1.343,-0.366,1.587
-0.807,0.506,-0.075,1.77,-0.305,1.709
-0.813,0.509,-0.077,1.343,-0.488,2.136
-0.812,0.51,-0.079,0.977,0.183,2.258
-0.798,0.528,-0.073,0.122,0.549,1.343
-0.8,0.526,-0.073,0.305,0.183,0.793
-0.8,0.527,-0.071,0.122,0.122,0.549
-0.796,0.532,-0.076,-0.122,0.305,-0.244
-0.796,0.526,-0.078,-2.014,1.343,-0.305
-0.801,0.53,-0.081,-1.526,0.61,-0.854
-0.798,0.527,-0.078,-1.16,0.793,-0.854
-0.799,0.527,-0.075,-1.038,0.488,-0.732
-0.811,0.525,-0.079,-1.526,0.977,-1.282
-0.817,0.518,-0.082,-2.319,0.732,-1.587
-0.819,0.521,-0.077,-2.075,0.61,-1.404
-0.82,0.524,-0.074,-1.77,0.488,-1.343
-0.813,0.502,-0.085,0.183,-0.061,0.549
-0.812,0.506,-0.086,-0.183,0.183,0.61
-0.812,0.512,-0.083,-0.671,0.366,0.488
-0.812,0.515,-0.079,0.244,0.061,0.0
-0.813,0.515,-0.076,0.488,0.244,0.061
-0.813,0.512,-0.077,0.305,0.549,-0.061
-0.813,0.513,-0.079,0.244,0.427,-0.244
-0.812,0.513,-0.079,0.122,0.427,-0.122
-0.808,0.511,-0.08,0.854,-0.244,0.0
-0.809,0.509,-0.084,1.282,-0.671,0.061
-0.815,0.518,-0.082,0.671,-0.427,0.366
-0.816,0.519,-0.081,0.183,-0.427,0.488
-0.807,0.527,-0.075,0.793,0.244,0.183
-0.804,0.523,-0.077,1.038,-0.122,-0.122
-0.804,0.522,-0.08,0.793,-0.061,-0.366
-0.802,0.516,-0.084,1.099,-0.122,-0.488
-0.802,0.518,-0.085,0.488,0.0,-0.671
-0.804,0.52,-0.085,0.0,0.244,-0.549
-0.807,0.528,-0.076,-0.305,0.488,-0.793
-0.806,0.527,-0.076,-0.305,0.366,-0.671
-0.798,0.524,-0.077,-0.427,0.305,-0.671
-0.798,0.524,-0.076,-0.488,0.244,-0.61

-1.28,0.17,-0.096,1.648,-16.113,126.16
-1.296,0.29,-0.029,-3.784,-14.343,127.136
-1.297,0.371,-0.023,-1.16,-8.85,131.226
-1.283,0.421,0.001,-7.324,-5.615,131.409
-1.261,0.416,0.015,-12.451,-4.456,130.554
-1.237,0.399,0.016,-14.832,-5.371,130.676
-1.249,0.306,-0.078,-23.621,-19.47,136.23
-0.999,0.207,-0.101,-2.014,-36.438,110.779
-0.949,0.116,-0.104,-15.259,-31.494,93.445
-0.867,0.134,-0.091,-32.288,-24.231,77.698
-0.846,0.172,-0.064,-47.729,-14.038,64.331
-0.78,0.189,-0.018,-60.669,-0.671,43.945
-0.682,0.175,0.003,-60.852,11.475,19.531
-0.673,0.096,0.008,-52.368,15.381,2.625
-0.766,-0.105,-0.041,-33.997,8.24,-12.024
-0.825,-0.202,-0.151,-36.438,4.272,-28.931
-0.863,-0.204,-0.175,-38.452,-1.831,-39.551
-1.003,-0.462,-0.07,-57.983,-2.869,-45.715
-1.062,-0.612,0.042,-64.575,12.756,-37.72
-1.026,-0.602,0.006,-60.73,19.226,-33.936
-0.927,-0.349,-0.257,-63.599,11.78,-29.419
-0.887,-0.015,-0.124,-20.264,-8.667,-27.283
-0.989,0.218,-0.081,-9.46,-10.986,-30.701
-1.183,-0.831,-0.072,-20.874,23.682,5.676
-1.298,-1.032,-0.486,0.916,-2.625,27.893
-1.219,0.21,0.026,23.132,-34.851,3.052
-0.506,0.744,-0.048,52.795,16.846,-14.038
-0.715,0.039,-0.117,36.438,5.127,-27.222
-0.978,-0.409,-0.287,11.78,-34.973,-18.677
-1.095,-0.366,-0.272,-16.968,-43.274,-11.414
-0.997,0.143,-0.101,-20.264,-6.287,-26.428
-1.102,-0.21,-0.124,-15.686,-1.282,-19.348
-1.003,-0.181,-0.17,-15.808,1.343,-19.592
-0.953,-0.161,-0.181,-15.991,1.648,-21.851
-0.915,-0.043,-0.185,1.831,-3.967,-19.409
-0.96,-0.005,-0.144,3.418,-8.85,-12.451
-0.976,-0.02,-0.122,0.244,-11.169,-4.456
-0.982,-0.021,-0.126,-6.226,-4.211,2.747
-0.968,-0.062,-0.231,1.77,-5.127,1.892
-0.968,-0.077,-0.227,3.845,-9.094,1.16
-0.985,-0.068,-0.104,4.028,-16.174,15.381
-0.992,-0.028,-0.129,-2.014,-7.08,2.075
-0.981,-0.028,-0.16,-1.709,-5.127,3.418
-0.973,-0.008,-0.178,-3.296,-1.709,3.052
-0.958,-0.006,-0.165,-5.676,-0.183,1.16
-0.973,-0.038,-0.148,-8.301,-2.197,-3.906
-0.984,-0.033,-0.136,-8.423,-2.075,-4.15
-0.992,-0.03,-0.114,-8.545,0.061,-4.028
-0.976,-0.077,-0.124,-1.892,-1.099,-2.319
-0.973,-0.071,-0.108,-0.427,-1.648,-1.892
-0.97,-0.067,-0.11,4.15,-0.671,-2.197
-0.965,-0.093,-0.14,5.92,-1.221,-2.93
-0.982,-0.121,-0.166,9.338,-3.479,-2.502
-0.99,-0.125,-0.165,7.812,-2.808,-2.38
-0.987,-0.123,-0.179,6.897,-1.404,-2.136
-0.964,-0.096,-0.142,2.014,1.404,-1.465
-0.957,-0.095,-0.133,0.977,2.747,-1.892
-0.978,-0.13,-0.136,-1.404,2.38,-2.563
-0.983,-0.115,-0.133,-3.052,2.136,-1.221
-0.979,-0.099,-0.138,-3.418,3.113,-1.343
-0.984,-0.062,-0.166,1.831,1.709,-2.441
-0.969,-0.091,-0.192,1.465,-1.282,-1.404
-0.975,-0.05,-0.154,-1.16,-0.183,-1.282
-0.98,-0.049,-0.154,-1.953,1.099,-1.404
-0.977,-0.052,-0.152,-3.845,2.502,-1.526
-0.97,-0.047,-0.154,-3.906,2.625,-1.465
-0.997,-0.01,-0.139,-5.92,2.991,-1.709
-0.97,-0.019,-0.126,-4.456,1.831,-1.648
-0.965,-0.027,-0.111,-0.305,1.587,-1.038
-0.982,-0.047,-0.142,2.625,0.61,-1.221
-0.98,-0.054,-0.162,3.235,-15.442,-0.854
-0.972,-0.045,-0.135,2.502,-0.916,-0.488
-0.973,-0.042,-0.13,0.793,2.136,0.122
-0.974,-0.043,-0.135,0.61,2.258,0.0
-0.973,-0.053,-0.143,0.183,1.343,-0.244
-0.969,-0.047,-0.133,0.244,-0.061,-0.549
-0.971,-0.044,-0.129,0.244,0.244,-0.61
-0.982,-0.055,-0.126,0.427,1.282,-0.854
-0.981,-0.063,-0.135,0.549,1.587,-0.916
-0.982,-0.085,-0.151,2.93,0.488,-0.854
-0.981,-0.074,-0.12,2.136,1.892,-1.282
-0.979,-0.072,-0.122,2.136,2.441,-1.221
-0.975,-0.074,-0.145,2.747,2.197,-0.854
-0.979,-0.077,-0.153,3.296,1.343,-0.793
-0.976,-0.068,-0.12,1.831,-0.244,-0.61
-0.975,-0.062,-0.113,1.282,0.793,-0.366
-0.978,-0.057,-0.145,1.099,0.488,-0.366
-0.978,-0.06,-0.133,2.747,-0.427,0.305
-0.975,-0.071,-0.129,0.488,1.343,0.549
-0.981,-0.08,-0.14,0.122,1.16,0.61
-0.982,-0.082,-0.164,-0.793,-0.366,1.526
-0.98,-0.073,-0.166,-3.54,-1.221,2.136
-0.969,-0.033,-0.129,-5.92,-0.671,2.136
-0.965,-0.024,-0.123,-5.92,0.427,1.953
-0.953,-0.01,-0.117,-3.967,2.38,1.77
-0.944,0.001,-0.109,-3.54,2.686,1.343
-0.958,-0.039,-0.111,-2.625,1.404,-0.854
-0.986,-0.078,-0.123,-4.15,0.549,-1.16
-0.986,-0.069,-0.126,-4.089,1.343,-1.465
-0.99,-0.074,-0.143,-2.502,1.709,-1.343
-0.984,-0.073,-0.142,-0.671,0.244,-0.793
-0.977,-0.051,-0.131,-0.244,0.366,0.977
-0.977,-0.042,-0.128,0.488,0.366,1.099
-0.971,-0.037,-0.121,0.427,0.427,0.793
-0.979,-0.056,-0.111,1.892,0.183,-0.244
-0.974,-0.068,-0.122,2.93,-0.366,-0.366
-0.974,-0.074,-0.134,3.235,-0.061,-0.488
-0.98,-0.079,-0.151,4.089,-0.366,-0.732
-0.983,-0.069,-0.138,2.197,-1.404,0.0
-0.982,-0.062,-0.128,1.282,-0.671,0.061
-0.976,-0.063,-0.125,-0.671,1.282,0.122
-0.967,-0.048,-0.125,0.732,1.831,-0.244
-0.972,-0.045,-0.124,0.916,1.099,-0.549
-0.982,-0.051,-0.122,1.587,-0.732,-0.732
-0.979,-0.049,-0.128,2.136,-0.671,-0.549
-0.969,-0.049,-0.137,2.808,-0.916,-0.488
-0.967,-0.056,-0.141,2.991,-0.854,-0.427
-0.966,-0.072,-0.147,2.014,-0.916,0.61
-0.966,-0.071,-0.144,2.014,-1.16,0.61

-0.898,0.342,-0.264,3.723,2.441,-22.278
-0.884,0.352,-0.251,4.7,1.587,-22.278
-0.881,0.353,-0.236,4.272,0.793,-23.01
-0.874,0.36,-0.223,3.723,0.244,-23.926
-0.875,0.356,-0.212,5.127,-0.854,-24.78
-0.867,0.36,-0.205,7.019,-1.221,-25.452
-0.859,0.358,-0.204,7.812,-1.709,-26.245
-0.859,0.332,-0.215,10.559,-1.831,-26.184
-0.844,0.207,-0.266,12.085,-4.15,-23.621
-0.823,0.198,-0.281,13.672,-5.249,-21.362
-0.834,0.257,-0.289,10.925,-6.531,-18.738
-0.873,0.479,-0.238,10.986,-4.456,-25.024
-0.883,0.464,-0.242,14.343,-4.761,-28.442
-0.877,0.32,-0.274,17.395,-2.441,-27.588
-0.846,0.183,-0.397,23.193,-2.136,-18.25
-0.923,0.283,-0.293,-2.014,1.831,4.333
-0.906,0.395,-0.221,-4.578,5.249,9.277
-0.831,0.774,-0.098,3.296,7.751,7.202
-0.79,0.804,-0.056,14.404,-2.258,-9.216
-0.807,0.738,-0.076,18.372,-6.104,-16.357
-0.872,0.418,-0.156,17.09,-14.343,-17.212
-0.847,0.327,-0.241,2.319,-3.967,-12.939
-0.855,0.253,-0.309,9.033,-1.709,-11.841
-0.863,0.279,-0.315,-2.625,3.906,-9.033
-0.925,0.491,-0.203,-24.963,12.329,-9.827
-0.905,0.516,-0.16,-20.752,13.184,-8.057
-0.899,0.51,-0.118,-15.442,9.338,-7.385
-0.88,0.532,-0.108,-8.118,5.371,-7.812
-0.863,0.51,-0.106,-3.113,2.93,-8.484
-0.85,0.465,-0.141,13.55,-1.343,-9.46
-0.858,0.404,-0.211,20.874,0.183,-8.728
-0.819,0.316,-0.322,8.606,4.883,-5.432
-0.816,0.327,-0.336,3.967,5.859,-4.333
-0.829,0.383,-0.318,-8.484,6.897,-3.662
-0.837,0.408,-0.237,-14.099,7.385,-3.418
-0.834,0.422,-0.189,-16.235,5.981,-3.906
-0.835,0.42,-0.177,-16.052,5.188,-3.845
-0.866,0.407,-0.154,-10.071,2.319,-2.502
-0.865,0.422,-0.166,-7.141,2.075,-1.709
-0.85,0.446,-0.23,-3.113,1.709,-1.099
-0.829,0.381,-0.27,-12.512,-1.831,-1.404
-0.841,0.371,-0.253,-16.052,-1.465,-1.404
-0.852,0.382,-0.224,-21.179,0.244,-1.099
-0.875,0.397,-0.184,-21.24,0.61,-0.916
-0.864,0.409,-0.172,-18.066,1.648,0.549
-0.867,0.452,-0.178,-10.132,-0.305,0.793
-0.87,0.471,-0.172,-8.606,-0.366,0.61
-0.87,0.491,-0.182,-3.54,-0.305,0.122
-0.856,0.386,-0.22,4.15,-1.526,-0.488
-0.857,0.371,-0.241,4.211,-2.075,0.366
-0.843,0.385,-0.217,2.197,-2.136,3.601
-0.831,0.402,-0.223,2.747,-2.014,4.089
-0.837,0.384,-0.245,3.235,-1.953,4.7
-0.844,0.368,-0.225,3.906,-1.709,5.188
-0.853,0.408,-0.24,4.211,-1.526,5.371
-0.852,0.397,-0.247,3.967,-1.587,5.127
-0.848,0.38,-0.235,1.526,-1.038,4.761
-0.855,0.386,-0.234,1.038,-0.977,4.395
-0.863,0.415,-0.235,0.488,-0.916,3.845
-0.857,0.428,-0.231,0.244,-1.282,3.418
-0.849,0.41,-0.225,1.282,-1.648,2.136
-0.852,0.401,-0.222,1.465,-1.648,2.014
-0.87,0.417,-0.223,2.014,-1.465,1.709
-0.873,0.436,-0.215,2.136,0.0,0.916
-0.841,0.418,-0.235,4.822,0.854,-0.61
-0.854,0.391,-0.256,7.141,-0.122,-0.732
-0.856,0.382,-0.255,7.935,-0.366,-0.671
-0.863,0.363,-0.256,9.338,-0.732,0.244
-0.856,0.359,-0.248,8.85,-0.61,0.732
-0.849,0.367,-0.236,5.493,-0.122,1.831
-0.849,0.368,-0.231,4.883,-0.061,1.343
-0.859,0.402,-0.221,3.235,0.061,0.488
-0.856,0.438,-0.226,3.845,0.61,0.0
-0.841,0.432,-0.23,3.601,1.038,-1.16
-0.843,0.413,-0.229,3.174,0.916,-1.465
-0.859,0.411,-0.242,1.587,1.343,-1.282
-0.859,0.408,-0.239,1.709,1.587,-1.282
-0.85,0.401,-0.241,-1.404,0.488,-1.282
-0.847,0.419,-0.232,-1.77,0.366,-1.221
-0.845,0.418,-0.221,-1.526,0.305,-1.221
-0.842,0.411,-0.225,0.732,0.122,-0.671
-0.854,0.402,-0.228,1.221,-0.122,-0.183
-0.859,0.407,-0.224,0.854,0.183,0.305
-0.857,0.408,-0.222,0.854,0.427,0.244
-0.848,0.427,-0.227,0.366,0.305,-0.183
-0.847,0.427,-0.229,0.0,0.061,-0.305
-0.846,0.411,-0.224,-0.366,0.0,-0.488
-0.859,0.407,-0.218,0.061,0.488,-0.488
-0.862,0.406,-0.223,1.404,0.671,-0.427
-0.857,0.401,-0.221,2.197,0.61,-0.366
-0.847,0.4,-0.238,1.648,0.549,0.366
-0.849,0.4,-0.23,1.282,0.427,0.305
-0.853,0.404,-0.224,1.099,0.305,0.244
-0.85,0.411,-0.224,0.977,0.793,0.183
-0.855,0.409,-0.227,1.953,0.366,0.366
-0.849,0.408,-0.228,2.563,0.305,0.671
-0.847,0.397,-0.239,1.831,-0.305,1.038
-0.855,0.384,-0.234,1.953,-0.366,0.916
-0.858,0.379,-0.233,1.465,-0.122,1.465
-0.859,0.372,-0.233,1.221,-0.244,1.831
-0.85,0.388,-0.204,1.282,-0.549,3.235
-0.848,0.404,-0.201,2.136,-0.732,3.54
-0.848,0.435,-0.209,3.174,-1.16,3.784
-0.85,0.434,-0.21,5.188,-0.549,2.869
-0.857,0.428,-0.215,5.493,0.244,2.136
-0.855,0.421,-0.226,5.737,-0.061,1.892
-0.849,0.397,-0.243,2.258,-0.488,0.854
-0.85,0.391,-0.236,0.366,-0.061,0.488
-0.861,0.397,-0.223,-1.953,1.16,0.0
-0.854,0.404,-0.222,-2.808,1.648,-0.427
-0.855,0.404,-0.217,-2.93,1.648,-0.244
-0.856,0.418,-0.218,-3.601,0.732,0.061
-0.854,0.419,-0.21,-2.197,0.427,0.061
-0.851,0.412,-0.217,-0.854,0.061,0.122
-0.851,0.408,-0.216,-0.793,-0.549,0.183
-0.857,0.407,-0.221,0.244,-0.732,0.549
-0.854,0.406,-0.224,-0.122,-0.549,0.549
-0.856,0.397,-0.219,-0.549,-0.854,0.977
-0.852,0.395,-0.221,-1.099,-1.099,1.587

-0.869,0.407,-0.225,-0.732,-0.366,1.648
-0.86,0.416,-0.218,-0.793,0.244,1.953
-0.853,0.42,-0.214,-1.282,0.61,1.831
-0.85,0.42,-0.206,-1.038,0.122,1.77
-0.849,0.418,-0.207,-0.305,-0.061,1.465
-0.851,0.412,-0.211,0.183,-0.366,1.282
-0.855,0.408,-0.216,0.549,-0.488,0.977
-0.863,0.409,-0.215,2.258,-0.427,0.549
-0.859,0.403,-0.228,2.319,0.183,0.366
-0.861,0.39,-0.228,1.404,0.366,-0.244
-0.862,0.391,-0.225,0.854,0.793,-0.183
-0.852,0.398,-0.231,0.183,1.038,-0.488
-0.852,0.396,-0.231,0.183,0.61,-0.549
-0.854,0.386,-0.226,0.671,0.793,-0.122
-0.856,0.388,-0.228,0.732,0.183,0.0
-0.854,0.399,-0.227,0.061,0.305,-0.061
-0.854,0.394,-0.224,0.244,0.061,-0.427
-0.856,0.388,-0.232,-0.793,-0.122,-0.305
-0.857,0.394,-0.23,-1.282,0.061,-0.183
-0.856,0.397,-0.227,-0.916,0.549,-0.244
-0.855,0.397,-0.229,-1.038,0.732,-0.183
-0.856,0.387,-0.223,-0.732,0.244,-0.427
-0.86,0.39,-0.219,-1.465,0.244,-0.549
-0.862,0.402,-0.218,-1.282,0.854,-0.427
-0.856,0.408,-0.223,-1.465,1.038,-0.61
-0.856,0.402,-0.214,-1.526,0.854,-0.854
-0.86,0.407,-0.219,-0.671,0.854,-0.854
-0.859,0.408,-0.217,-0.549,0.793,-0.793
-0.851,0.406,-0.225,0.122,0.488,-0.488
-0.847,0.41,-0.221,-0.305,0.244,-0.244
-0.853,0.412,-0.223,0.916,-0.061,-0.305
-0.864,0.416,-0.229,1.16,-0.305,-0.366
-0.856,0.413,-0.227,1.77,-0.244,0.183
-0.851,0.413,-0.225,1.587,-0.183,0.366
-0.853,0.41,-0.224,2.136,-0.732,0.793
-0.854,0.411,-0.226,2.625,-0.732,0.916
-0.856,0.407,-0.219,2.563,-1.16,0.488
-0.86,0.407,-0.217,2.93,-0.793,0.427
-0.855,0.398,-0.216,3.174,-0.61,0.366
-0.855,0.393,-0.221,3.235,-0.427,0.244
-0.856,0.392,-0.229,2.197,-0.183,0.549
-0.858,0.386,-0.229,2.563,-0.305,0.366
-0.859,0.388,-0.23,1.892,-0.244,0.061
-0.857,0.391,-0.23,1.282,-0.366,0.122
-0.855,0.398,-0.23,1.587,0.793,0.366
-0.855,0.395,-0.23,0.793,0.732,0.305
-0.853,0.391,-0.226,0.977,0.183,0.061
-0.853,0.396,-0.229,0.244,0.305,0.0
-0.856,0.397,-0.228,-0.427,0.244,0.122
-0.859,0.394,-0.228,0.732,0.427,0.061
-0.857,0.395,-0.228,0.366,0.427,0.0
-0.855,0.395,-0.232,0.977,0.488,0.549
-0.852,0.392,-0.234,0.305,0.305,0.671
-0.855,0.391,-0.226,-0.183,0.183,0.549
-0.856,0.396,-0.223,-0.549,0.366,0.488
-0.857,0.395,-0.223,-0.244,0.0,0.366
-0.855,0.393,-0.224,-0.122,0.183,0.366
-0.859,0.391,-0.227,-0.549,0.183,0.305
-0.86,0.395,-0.227,-0.427,0.183,0.244
-0.854,0.39,-0.229,-0.122,0.366,0.0
-0.856,0.388,-0.228,-0.61,0.305,-0.061
-0.86,0.395,-0.229,-1.404,0.244,0.122
-0.856,0.396,-0.223,-1.526,0.366,0.0
-0.859,0.395,-0.226,-1.892,0.183,0.427
-0.854,0.405,-0.214,-2.502,0.0,0.61
-0.856,0.404,-0.213,-2.38,0.0,0.488
-0.856,0.411,-0.218,-1.831,0.427,0.549
-0.856,0.416,-0.221,-1.709,0.183,0.0
-0.856,0.404,-0.228,-1.343,0.061,-0.061
-0.854,0.401,-0.226,-1.587,0.244,0.183
-0.86,0.399,-0.222,-1.831,0.61,0.305
-0.861,0.406,-0.22,-1.831,0.732,0.244
-0.856,0.401,-0.223,-0.854,0.305,-0.061
-0.856,0.398,-0.222,-0.61,0.244,0.061
-0.859,0.4,-0.23,-0.061,0.183,0.366
-0.86,0.399,-0.229,-0.122,-0.183,0.122
-0.856,0.399,-0.226,0.61,0.305,0.305
-0.857,0.387,-0.229,0.61,-0.061,0.183
-0.857,0.389,-0.23,0.366,-0.061,0.183
-0.858,0.386,-0.23,0.0,-0.061,0.183
-0.86,0.384,-0.227,0.0,0.0,0.061
-0.861,0.393,-0.227,-0.122,0.122,0.122
-0.86,0.395,-0.228,-0.122,0.0,0.122
-0.856,0.397,-0.223,0.61,0.0,0.122
-0.856,0.396,-0.232,0.549,-15.625,0.0
-0.859,0.392,-0.228,0.0,-0.183,-0.183
-0.859,0.396,-0.23,0.671,0.061,-0.244
-0.858,0.392,-0.23,0.366,0.183,-0.122
-0.856,0.395,-0.228,0.0,0.244,-0.244
-0.856,0.396,-0.226,-0.366,0.244,-0.427
-0.86,0.399,-0.225,-0.122,0.061,-0.427
-0.86,0.399,-0.226,0.61,-0.122,-0.366
-0.857,0.396,-0.227,0.488,-0.244,-0.427
-0.855,0.395,-0.228,0.916,-0.122,-0.366
-0.857,0.396,-0.234,0.427,0.183,-0.244
-0.861,0.398,-0.232,0.732,0.244,-0.366
-0.861,0.396,-0.227,0.61,0.061,-0.488
-0.861,0.401,-0.219,0.122,-0.183,-0.366
-0.86,0.407,-0.224,0.916,0.061,-0.488
-0.858,0.411,-0.218,0.732,0.366,-0.549
-0.856,0.405,-0.217,1.587,0.427,-1.038
-0.852,0.404,-0.224,1.648,0.549,-0.977
-0.859,0.402,-0.231,1.343,0.61,-1.099
-0.859,0.4,-0.234,1.16,0.732,-1.099
-0.85,0.408,-0.227,0.0,1.099,-1.16
-0.85,0.406,-0.233,-0.244,1.221,-1.16
-0.852,0.394,-0.225,0.122,0.305,-1.16
-0.854,0.393,-0.222,0.061,0.122,-1.038
-0.855,0.39,-0.224,0.366,0.244,-0.671
-0.861,0.39,-0.224,0.488,0.183,-0.61
-0.859,0.396,-0.225,2.014,0.427,-0.305
-0.852,0.394,-0.234,1.465,0.305,-0.366
-0.851,0.39,-0.232,1.221,0.0,0.061
-0.852,0.386,-0.232,1.526,-0.183,0.183
-0.862,0.393,-0.231,0.183,-0.549,0.0
-0.864,0.396,-0.228,0.61,-0.488,0.061
-0.857,0.406,-0.233,0.793,0.061,0.183
-0.858,0.397,-0.23,0.916,0.0,0.122
-0.853,0.397,-0.232,1.465,-0.244,0.061

-0.846,0.412,-0.267,10.01,0.305,0.0
-0.852,0.413,-0.275,8.545,-0.427,-0.366
-0.856,0.419,-0.27,6.897,-0.549,-0.488
-0.861,0.424,-0.261,6.348,-0.183,-0.549
-0.868,0.429,-0.256,5.92,0.366,-0.549
-0.88,0.432,-0.255,5.615,0.977,-0.977
-0.886,0.433,-0.25,5.371,1.099,-1.282
-0.869,0.439,-0.217,4.578,1.16,-2.075
-0.864,0.444,-0.204,4.761,1.282,-3.174
-0.872,0.444,-0.188,9.827,1.831,-6.531
-0.874,0.422,-0.185,12.512,1.709,-7.324
-0.887,0.395,-0.199,17.456,0.916,-8.545
-0.894,0.373,-0.21,19.531,0.793,-9.216
-0.904,0.296,-0.236,20.386,0.977,-8.911
-0.911,0.281,-0.241,20.02,1.221,-8.362
-0.922,0.27,-0.242,19.287,1.709,-7.019
-0.922,0.27,-0.235,19.409,2.075,-5.676
-0.913,0.281,-0.227,20.813,2.258,-4.028
-0.92,0.291,-0.222,21.484,1.892,-3.418
-0.927,0.341,-0.214,22.034,2.014,-1.77
-0.924,0.361,-0.206,20.935,2.136,-1.465
-0.925,0.392,-0.191,19.226,2.502,-1.343
-0.916,0.384,-0.195,21.301,2.747,-1.465
-0.907,0.361,-0.197,24.78,4.333,-1.343
-0.906,0.362,-0.189,23.804,5.371,-1.16
-0.895,0.362,-0.182,21.423,7.324,-2.075
-0.885,0.351,-0.179,21.24,7.446,-2.686
-0.887,0.331,-0.171,22.156,7.385,-2.686
-0.887,0.326,-0.168,22.461,7.507,-2.441
-0.885,0.327,-0.171,22.4,7.202,-1.526
-0.887,0.324,-0.166,19.409,7.263,-1.465
-0.889,0.317,-0.159,17.7,7.202,-1.404
-0.917,0.286,-0.126,16.907,8.057,0.061
-0.927,0.274,-0.12,17.883,9.033,1.709
-0.946,0.238,-0.107,20.63,9.644,5.432
-0.953,0.196,-0.084,22.888,10.193,11.108
-0.984,0.155,-0.047,25.94,12.207,18.616
-0.999,0.126,-0.019,27.832,13.306,23.132
-1.034,0.01,0.087,33.142,18.799,42.236
-1.0,-0.125,0.108,46.204,22.766,68.542
-0.985,-0.225,-0.02,54.626,10.071,90.088
-1.009,-0.204,-0.141,66.589,-2.625,106.934
-1.219,0.051,-0.214,28.87,-29.419,122.681
-1.275,0.252,-0.148,8.057,-29.846,125.122
-1.27,0.341,-0.124,2.197,-26.306,127.441
-1.213,0.357,-0.077,-0.977,-20.447,138.977
-1.279,0.172,-0.137,-21.545,-15.93,142.395
-1.233,0.17,-0.107,-24.353,-12.634,135.681
-1.153,0.193,-0.085,-15.686,-17.456,121.338
-1.041,0.172,-0.076,-11.475,-24.048,112.854
-0.989,0.142,-0.096,-10.071,-23.56,106.628
-0.934,0.109,-0.107,-15.808,-16.846,94.91
-0.806,0.091,-0.099,-36.499,-10.681,64.819
-0.774,0.124,-0.082,-46.204,-9.216,51.453
-0.76,0.151,-0.08,-49.988,-7.935,44.617
-0.7,0.184,-0.045,-53.894,-5.859,20.386
-0.661,0.171,-0.039,-45.776,-5.432,12.573
-0.646,0.139,-0.022,-39.551,-4.761,6.836
-0.717,-0.058,-0.04,-36.865,-3.662,-0.122
-0.769,-0.17,-0.045,-34.79,-5.798,-7.751
-0.882,-0.331,-0.127,-42.48,-6.653,-19.836
-0.896,-0.228,-0.108,-52.917,-6.348,-46.753
-0.965,-0.344,0.031,-55.298,3.967,-53.162
-1.031,-0.556,-0.004,-50.842,20.691,-49.194
-1.003,-0.236,-0.159,-16.968,-13.428,-32.471
-1.382,0.259,0.047,-17.273,-19.47,-49.683
-1.819,-1.302,-0.529,-23.743,-31.494,64.758
-0.409,0.727,-0.049,30.701,-5.188,-16.174
-0.58,0.279,0.129,13.489,28.32,-18.372
-0.961,-0.217,-0.217,-14.16,-16.418,-15.503
-1.092,-0.229,-0.212,-30.273,-9.705,-17.944
-0.977,-0.16,-0.146,-32.532,6.287,-13.672
-0.938,-0.07,-0.122,-20.386,4.456,-8.118
-0.967,-0.077,-0.149,-11.902,0.854,-6.165
-0.967,-0.108,-0.143,0.0,-4.089,-3.662
-0.977,-0.189,-0.157,4.761,-9.644,-1.343
-0.987,-0.099,-0.123,2.869,-6.531,-1.282
-0.96,-0.12,-0.158,0.366,3.723,-2.441
-0.962,-0.13,-0.142,-3.967,3.845,-8.667
-0.964,-0.152,-0.135,-3.174,0.854,-5.554
-0.96,-0.129,-0.138,-3.54,0.977,-1.282
-0.963,-0.152,-0.11,4.517,1.404,1.953
-0.96,-0.18,-0.135,-1.343,3.052,2.869
-0.97,-0.208,-0.125,-1.343,2.441,2.441
-0.972,-0.209,-0.122,-1.404,2.747,2.93
-0.97,-0.2,-0.119,-1.465,2.075,3.174
-0.969,-0.22,-0.131,-1.587,0.244,2.625
-0.982,-0.18,-0.093,-2.014,-0.122,3.601
-0.988,-0.187,-0.083,-0.305,0.854,4.883
-0.964,-0.194,-0.119,1.343,-0.549,5.005
-0.967,-0.188,-0.106,1.648,-2.38,4.15
-0.97,-0.158,-0.08,0.671,1.221,3.479
-0.955,-0.161,-0.076,5.92,-0.793,1.221
-0.952,-0.172,-0.096,3.479,-0.854,-1.892
-0.968,-0.185,-0.106,2.197,-0.61,-2.319
-0.971,-0.204,-0.117,-1.038,0.244,-0.488
-0.961,-0.188,-0.09,-1.465,1.709,0.366
-0.969,-0.183,-0.085,-2.502,1.526,1.16
-0.953,-0.169,-0.108,2.747,-0.977,0.427
-0.98,-0.2,-0.114,5.798,-1.709,-0.061
-0.966,-0.192,-0.124,3.967,-1.282,0.183
-0.96,-0.184,-0.112,1.282,0.244,0.427
-0.962,-0.171,-0.117,0.488,0.549,-0.061
-0.963,-0.176,-0.124,3.357,-0.305,-0.671
-0.978,-0.203,-0.129,2.686,-0.061,0.427
-0.965,-0.192,-0.14,1.953,-1.831,1.831
-0.965,-0.178,-0.113,1.648,0.305,-0.244
-0.969,-0.191,-0.132,0.793,0.732,0.305
-0.965,-0.184,-0.115,-0.61,0.427,0.122
-0.977,-0.198,-0.131,-2.014,0.305,-1.465
-0.969,-0.193,-0.137,-1.282,0.244,-1.038
-0.967,-0.177,-0.112,-1.953,1.099,-1.038
-0.967,-0.173,-0.124,0.671,0.977,-0.977
-0.966,-0.172,-0.133,0.122,0.488,-0.732
-0.966,-0.171,-0.124,0.671,-0.061,1.709
-0.966,-0.18,-0.131,3.357,0.305,3.357
-0.959,-0.164,-0.126,4.333,-0.61,3.967
-0.963,-0.179,-0.146,5.188,-1.221,4.578
-0.962,-0.177,-0.129,0.977,1.709,2.808

-0.915,0.629,-0.304,29.236,2.075,-17.395
-1.012,0.632,-0.292,20.935,0.732,-18.616
-1.026,0.669,-0.228,16.785,2.136,-18.188
-1.009,0.697,-0.18,16.541,5.554,-18.005
-0.971,0.708,-0.147,12.878,7.996,-19.104
-0.953,0.752,-0.128,7.141,7.751,-21.057
-0.915,0.732,-0.053,-16.541,10.315,-38.757
-0.907,0.624,-0.074,-9.155,10.437,-37.354
-0.855,0.52,-0.135,-6.836,10.437,-35.4
-0.772,0.508,-0.175,-5.432,13.184,-27.161
-0.768,0.523,-0.173,-4.7,14.343,-22.705
-0.773,0.541,-0.173,-7.812,12.817,-20.325
-0.788,0.509,-0.125,-14.343,8.972,-19.226
-0.815,0.474,-0.071,-7.202,1.831,-14.771
-0.827,0.439,-0.093,3.967,-0.183,-12.634
-0.843,0.365,-0.178,8.118,-1.77,-7.935
-0.916,0.338,-0.201,1.465,-2.991,-5.981
-0.914,0.385,-0.207,-10.193,1.892,-3.296
-0.889,0.385,-0.189,-13.916,4.944,-0.732
-0.858,0.463,-0.167,-12.146,7.263,4.395
-0.819,0.544,-0.172,0.671,4.211,5.676
-0.872,0.446,-0.151,6.592,-4.272,3.418
-0.876,0.408,-0.152,6.531,-5.31,4.395
-0.823,0.441,-0.207,7.568,0.0,5.92
-0.823,0.418,-0.212,4.761,2.197,5.554
-0.825,0.414,-0.208,2.808,2.136,5.31
-0.859,0.472,-0.183,-1.465,-0.427,3.662
-0.862,0.486,-0.173,-1.892,-0.305,3.113
-0.848,0.475,-0.15,0.366,0.549,1.465
-0.839,0.412,-0.196,3.174,0.244,1.16
-0.836,0.398,-0.191,1.404,-0.488,1.099
-0.856,0.387,-0.18,-4.395,-1.709,1.892
-0.861,0.397,-0.182,-6.104,-1.648,2.075
-0.863,0.402,-0.171,-7.812,-1.77,2.502
-0.86,0.403,-0.169,-6.47,-1.404,2.93
-0.863,0.413,-0.167,-4.578,-2.258,4.578
-0.854,0.414,-0.164,-2.93,-1.831,5.432
-0.841,0.432,-0.174,-1.038,-1.465,5.371
-0.857,0.375,-0.182,4.15,-2.38,5.493
-0.858,0.36,-0.183,3.906,-2.93,6.165
-0.878,0.394,-0.177,0.732,-1.099,9.033
-0.88,0.4,-0.164,0.183,-0.732,8.789
-0.873,0.404,-0.156,0.366,-1.038,7.446
-0.869,0.418,-0.146,1.038,-2.38,6.226
-0.872,0.455,-0.169,4.395,-2.93,4.578
-0.875,0.432,-0.174,6.958,-3.357,3.723
-0.88,0.413,-0.183,8.362,-1.587,3.723
-0.874,0.374,-0.203,6.897,-0.305,2.625
-0.881,0.381,-0.205,-0.244,0.061,1.038
-0.87,0.394,-0.196,-3.296,0.244,-0.916
-0.868,0.393,-0.189,-4.333,0.732,-1.709
-0.864,0.391,-0.18,-4.639,1.404,-1.892
-0.855,0.392,-0.194,-1.709,1.587,-1.709
-0.861,0.385,-0.218,-1.038,0.366,-1.343
-0.86,0.402,-0.209,-2.502,0.427,-1.343
-0.849,0.424,-0.191,-1.099,1.16,-0.854
-0.848,0.418,-0.182,-0.366,1.343,-0.793
-0.858,0.403,-0.186,1.221,1.099,-0.977
-0.866,0.371,-0.208,-0.122,-0.305,-0.732
-0.863,0.372,-0.212,-1.282,0.244,-0.549
-0.857,0.373,-0.211,-2.319,1.099,-0.061
-0.856,0.371,-0.204,-2.502,1.16,0.183
-0.865,0.39,-0.187,-3.296,1.282,0.732
-0.857,0.424,-0.169,-0.427,1.526,0.244
-0.852,0.412,-0.179,1.343,1.16,-0.183
-0.858,0.396,-0.188,0.977,0.244,-0.244
-0.868,0.401,-0.192,-0.854,0.793,0.0
-0.867,0.407,-0.196,-2.258,1.404,-0.366
-0.865,0.407,-0.186,-2.319,1.77,-0.427
-0.865,0.412,-0.182,-2.563,1.526,-0.549
-0.856,0.418,-0.174,-0.793,1.16,-0.061
-0.861,0.414,-0.191,0.305,0.183,0.0
-0.861,0.4,-0.192,0.977,-0.061,-0.061
-0.861,0.387,-0.192,1.343,-0.366,0.427
-0.864,0.385,-0.2,0.916,-0.61,0.671
-0.863,0.386,-0.197,0.366,-0.488,0.854
-0.857,0.409,-0.188,-0.732,0.366,0.916
-0.864,0.415,-0.187,-0.61,0.61,0.793
-0.865,0.408,-0.193,-1.465,0.671,0.244
-0.865,0.394,-0.188,-1.77,0.427,-0.305
-0.867,0.39,-0.189,-1.831,0.61,-0.244
-0.867,0.393,-0.19,-2.258,0.732,0.061
-0.862,0.417,-0.189,0.122,0.427,-0.366
-0.866,0.406,-0.192,0.549,0.0,-0.366
-0.86,0.401,-0.187,-0.366,-0.061,-0.305
-0.864,0.393,-0.191,0.183,0.0,0.061
-0.864,0.395,-0.186,-0.183,-0.122,0.061
-0.863,0.405,-0.188,-0.854,0.244,0.427
-0.861,0.398,-0.185,0.244,-0.061,0.549
-0.865,0.4,-0.185,1.16,-0.61,1.465
-0.863,0.406,-0.189,1.343,-0.671,1.343
-0.863,0.398,-0.187,1.282,-0.916,0.854
-0.866,0.398,-0.19,0.732,-0.977,0.732
-0.868,0.401,-0.192,0.427,-0.549,0.61
-0.867,0.4,-0.188,0.427,-0.305,0.488
-0.86,0.399,-0.191,0.305,-0.061,0.183
-0.865,0.407,-0.192,-0.122,-0.305,-0.122
-0.868,0.411,-0.186,-0.916,0.183,-0.427
-0.862,0.406,-0.188,-0.183,0.061,-0.977
-0.861,0.402,-0.19,-0.305,0.122,-0.977
-0.861,0.386,-0.188,-0.977,0.0,-0.793
-0.864,0.396,-0.196,-1.404,-0.305,-0.671
-0.863,0.402,-0.19,-1.038,-0.366,-0.671
-0.864,0.399,-0.198,-0.916,-0.305,-0.671
-0.865,0.408,-0.192,-2.075,-0.305,-1.221
-0.862,0.408,-0.185,-2.502,-0.183,-1.343
-0.88,0.422,-0.178,-1.221,0.793,-2.38
-0.851,0.421,-0.188,2.869,0.61,-3.662
-0.856,0.405,-0.202,3.357,-0.61,-3.845
-0.863,0.406,-0.202,2.625,-0.366,-3.113
-0.853,0.435,-0.181,3.052,0.793,-3.601
-0.856,0.435,-0.178,6.042,0.0,-4.272
-0.855,0.432,-0.178,6.653,0.183,-4.272
-0.851,0.413,-0.193,7.446,0.122,-4.028
-0.848,0.406,-0.19,6.897,0.305,-3.784
-0.848,0.409,-0.196,5.371,0.671,-3.906
-0.852,0.396,-0.199,2.441,0.977,-4.517
-0.851,0.39,-0.196,1.587,0.793,-4.456
-0.844,0.393,-0.195,0.061,0.183,-1.953

-0.893,0.44,-0.173,0.183,1.282,-1.282
-0.895,0.441,-0.168,1.77,1.587,-1.404
-0.901,0.433,-0.162,4.028,1.892,-1.343
-0.91,0.419,-0.161,5.981,1.404,-1.343
-0.917,0.403,-0.159,8.301,0.977,-1.221
-0.921,0.393,-0.158,10.742,0.488,-1.038
-0.918,0.405,-0.154,30.334,0.122,-1.709
-0.914,0.415,-0.174,19.531,-0.183,-2.625
-0.907,0.427,-0.213,17.883,-0.244,-3.723
-0.912,0.43,-0.221,15.625,0.427,-4.15
-0.91,0.413,-0.188,8.423,5.554,-5.737
-0.911,0.399,-0.183,7.629,6.47,-5.798
-0.904,0.315,-0.176,12.573,7.202,-3.418
-0.906,0.281,-0.181,14.709,6.47,-1.953
-0.894,0.265,-0.185,17.334,3.174,1.16
-0.872,0.281,-0.184,17.334,2.258,1.892
-0.872,0.296,-0.184,19.47,1.831,2.686
-0.879,0.304,-0.181,20.874,2.197,3.235
-0.892,0.281,-0.191,25.513,2.625,5.92
-0.898,0.253,-0.192,26.062,1.77,7.08
-0.899,0.221,-0.19,25.635,-0.488,13.123
-0.915,0.219,-0.181,23.682,-0.854,15.625
-0.948,0.242,-0.144,22.095,-0.122,19.775
-1.005,0.171,-0.054,27.161,4.944,30.701
-1.007,0.135,-0.049,30.457,5.737,35.828
-1.013,0.035,-0.005,34.058,6.653,48.645
-1.028,-0.02,0.036,30.029,7.507,62.866
-1.053,-0.212,0.158,11.719,13.0,84.045
-1.051,-0.143,0.115,14.954,17.456,101.868
-1.055,0.017,0.015,25.513,16.479,106.384
-1.235,0.198,-0.142,2.075,-26.184,131.042
-1.092,0.251,-0.048,-8.728,-6.958,116.15
-0.967,0.159,-0.109,3.479,-18.372,100.525
-0.945,0.139,-0.125,4.944,-20.508,97.107
-0.811,0.042,-0.117,-34.851,-7.751,41.992
-0.798,0.08,-0.105,-54.871,-1.465,21.667
-0.76,0.088,-0.091,-60.486,2.625,12.939
-0.779,-0.006,0.01,-59.814,3.54,2.258
-0.815,-0.153,0.037,-54.382,3.174,1.526
-0.973,-0.415,-0.014,-38.086,-2.197,9.46
-0.974,-0.438,-0.016,-34.485,-1.587,10.986
-0.851,-0.323,-0.081,-11.963,-7.996,-0.549
-0.916,-0.4,-0.172,14.465,-22.888,-6.958
-0.926,-0.466,-0.184,23.987,-30.884,-9.399
-0.878,-0.468,0.004,11.108,-23.254,-11.719
-0.917,-0.433,-0.102,1.526,1.221,-12.878
-0.871,-0.495,-0.103,-17.944,8.179,-12.939
-0.809,-0.375,-0.073,-51.514,2.869,-15.32
-2.099,-0.676,0.279,-66.895,-8.667,-43.274
-0.947,0.307,-0.098,18.066,5.31,-2.625
-0.725,0.417,-0.214,18.86,0.488,-20.996
-0.747,0.203,-0.195,38.696,-26.55,-19.775
-1.221,-0.16,-0.067,-25.513,-33.752,-24.109
-1.088,-0.119,-0.027,-36.255,5.31,-27.466
-1.004,-0.165,-0.078,-34.668,6.836,-24.78
-0.909,-0.063,-0.186,-25.146,3.418,-24.963
-0.939,-0.073,-0.231,-12.817,-3.784,-19.653
-0.957,-0.094,-0.228,-11.292,-4.639,-14.893
-0.96,-0.088,-0.249,-9.888,-2.075,1.77
-0.951,-0.076,-0.205,-10.376,-3.845,7.751
-0.958,-0.049,-0.142,-10.315,-10.437,15.137
-0.961,-0.042,-0.135,-4.761,-10.742,14.954
-0.987,-0.047,-0.138,-2.38,-6.348,12.939
-0.984,-0.1,-0.173,-12.024,5.249,13.062
-0.974,-0.072,-0.165,-10.498,7.446,12.634
-0.948,-0.06,-0.144,-5.615,5.798,10.803
-0.966,-0.137,-0.085,3.723,-0.122,9.277
-0.961,-0.173,-0.092,5.676,-0.793,8.057
-0.969,-0.213,-0.111,7.446,-0.977,4.7
-0.96,-0.218,-0.111,5.737,2.319,-0.488
-0.954,-0.222,-0.087,5.859,3.235,-1.465
-0.949,-0.222,-0.085,6.165,3.113,-2.014
-0.951,-0.227,-0.081,5.493,2.563,-4.272
-0.952,-0.216,-0.095,5.432,2.441,-5.432
-0.956,-0.214,-0.112,10.01,1.404,-8.24
-0.966,-0.217,-0.098,11.414,1.282,-9.033
-0.962,-0.221,-0.102,13.306,2.747,-10.193
-0.963,-0.221,-0.12,14.099,5.066,-13.611
-0.968,-0.217,-0.12,12.695,5.432,-14.221
-0.966,-0.201,-0.107,9.644,8.057,-16.052
-0.96,-0.195,-0.114,9.583,7.874,-16.846
-0.995,-0.211,-0.134,9.338,4.15,-15.686
-0.998,-0.214,-0.089,4.822,2.502,-7.568
-0.999,-0.223,-0.093,4.211,3.784,-5.066
-0.999,-0.231,-0.091,5.005,0.732,-0.61
-0.997,-0.218,-0.099,8.667,-0.977,2.93
-0.975,-0.196,-0.089,7.507,-1.953,5.554
-0.978,-0.196,-0.096,7.324,-2.136,6.104
-0.986,-0.195,-0.12,5.493,-3.418,8.667
-0.976,-0.184,-0.123,4.639,-3.479,9.216
-0.961,-0.159,-0.114,-2.197,-0.793,7.507
-0.967,-0.146,-0.108,-3.662,0.305,5.432
-0.966,-0.139,-0.092,-4.822,0.305,3.967
-0.957,-0.136,-0.09,-5.127,0.61,2.258
-0.959,-0.138,-0.098,-4.883,0.244,2.197
-0.964,-0.127,-0.091,-4.211,-1.099,2.38
-0.966,-0.123,-0.093,-4.272,-0.732,2.319
-0.967,-0.128,-0.109,-3.967,0.183,2.197
-0.97,-0.149,-0.087,-2.747,1.099,1.587
-0.973,-0.156,-0.104,-1.77,-0.916,1.526
-0.967,-0.136,-0.098,-1.77,-0.977,0.427
-0.969,-0.13,-0.104,-0.61,-0.549,0.183
-0.962,-0.139,-0.104,0.977,0.183,0.244
-0.965,-0.153,-0.107,2.075,-1.099,-0.183
-0.973,-0.159,-0.109,0.183,-0.61,0.366
-0.972,-0.156,-0.109,-0.671,-0.61,0.305
-0.963,-0.151,-0.101,0.793,-0.488,-0.305
-0.962,-0.153,-0.097,1.465,-0.305,-0.122
-0.97,-0.164,-0.11,2.808,-0.427,-0.122
-0.97,-0.166,-0.098,3.784,-0.732,-0.305
-0.978,-0.182,-0.101,1.831,1.648,-1.16
-0.967,-0.165,-0.119,3.906,1.099,-1.953
-0.965,-0.178,-0.117,4.883,-0.366,-1.221
-0.968,-0.172,-0.133,3.54,0.183,-1.099
-0.972,-0.193,-0.126,0.977,-0.61,-0.488
-0.973,-0.193,-0.122,0.61,-0.427,-0.366
-0.971,-0.189,-0.129,1.16,0.427,0.183
-0.968,-0.17,-0.118,0.793,-0.61,0.732
-0.966,-0.166,-0.118,0.366,0.0,0.61

-0.975,-0.119,-0.406,-6.348,-12.085,-32.593
-0.973,-0.101,-0.373,-12.878,-9.155,-30.212
-0.953,-0.066,-0.346,-16.357,-5.798,-28.137
-0.937,-0.038,-0.323,-18.25,-2.441,-26.611
-0.933,-0.015,-0.302,-20.508,0.061,-25.574
-0.929,0.047,-0.239,-15.015,-4.272,-24.597
-0.973,0.088,-0.237,4.15,-1.587,-29.419
-0.934,0.068,-0.217,4.089,4.395,-27.527
-0.933,0.149,-0.176,12.756,1.831,-27.954
-0.909,0.19,-0.216,19.531,-3.418,-28.564
-0.931,0.203,-0.244,20.325,-3.967,-28.87
-0.946,0.178,-0.245,17.883,-3.418,-28.87
-0.868,0.159,-0.257,19.836,-1.648,-24.17
-0.917,0.235,-0.271,14.404,-2.563,-23.376
-0.895,0.264,-0.198,14.343,-1.587,-32.593
-0.9,0.238,-0.184,15.93,-1.831,-32.593
-0.885,0.186,-0.172,23.743,-2.991,-31.616
-0.89,0.176,-0.265,29.968,-4.211,-32.043
-0.933,0.162,-0.435,22.522,-3.723,-34.79
-0.925,0.146,-0.38,8.667,-0.549,-32.593
-0.855,0.265,-0.275,8.606,7.141,-23.865
-0.901,0.451,-0.255,12.939,3.662,-9.949
-0.861,0.586,-0.161,14.893,4.333,-2.686
-0.855,0.781,-0.083,15.32,-1.587,-11.23
-0.836,0.754,-0.075,17.029,-1.77,-15.015
-0.813,0.576,-0.109,23.193,-4.211,-19.104
-0.845,0.501,-0.137,22.705,-5.493,-18.86
-0.854,0.337,-0.192,12.573,-4.211,-18.188
-0.853,0.359,-0.221,-0.671,5.127,-14.465
-0.879,0.394,-0.198,-9.216,8.179,-10.681
-0.867,0.484,-0.113,-21.851,11.353,-9.277
-0.872,0.499,-0.094,-21.301,11.23,-8.911
-0.861,0.495,-0.086,-14.771,6.714,-7.629
-0.874,0.507,-0.109,-9.033,3.662,-7.202
-0.877,0.489,-0.124,-2.93,0.732,-7.385
-0.856,0.401,-0.172,-2.869,-0.122,-4.15
-0.849,0.382,-0.16,-7.324,0.305,0.0
-0.858,0.448,-0.158,-9.338,-1.16,3.784
-0.885,0.481,-0.151,-7.629,-2.808,6.531
-0.893,0.463,-0.127,-6.47,-4.517,5.615
-0.892,0.423,-0.105,0.854,-5.981,5.066
-0.873,0.36,-0.175,4.272,-6.287,8.484
-0.867,0.363,-0.181,0.305,-5.127,7.629
-0.864,0.372,-0.179,-3.723,-4.639,6.104
-0.855,0.405,-0.17,-4.089,-3.418,5.066
-0.862,0.409,-0.177,-4.028,-3.296,4.272
-0.88,0.398,-0.195,-4.272,-1.892,1.587
-0.873,0.358,-0.215,-4.761,-1.282,1.038
-0.861,0.319,-0.237,-5.737,-0.427,1.343
-0.888,0.318,-0.249,-8.423,-1.038,1.953
-0.906,0.361,-0.234,-7.568,-0.305,2.258
-0.912,0.467,-0.195,-2.502,1.648,-0.854
-0.836,0.419,-0.215,6.531,2.136,-2.93
-0.849,0.317,-0.251,9.46,-0.732,-2.136
-0.868,0.255,-0.297,7.446,-4.028,-1.038
-0.868,0.268,-0.312,4.639,-4.333,-0.732
-0.841,0.39,-0.241,-1.587,-0.427,-0.427
-0.84,0.382,-0.236,-2.136,-0.671,-0.732
-0.853,0.35,-0.216,-2.563,-1.831,-0.916
-0.879,0.326,-0.254,1.099,-3.174,-0.122
-0.878,0.365,-0.264,-3.479,-1.221,-0.916
-0.866,0.364,-0.241,-3.784,1.77,-2.136
-0.875,0.371,-0.236,-4.333,2.197,-2.319
-0.848,0.419,-0.222,-2.747,0.854,-1.465
-0.856,0.399,-0.231,-0.427,-1.77,-2.258
-0.864,0.388,-0.236,1.77,-2.38,-1.892
-0.874,0.364,-0.24,0.61,-1.526,-1.282
-0.876,0.402,-0.239,-1.953,0.122,-0.916
-0.869,0.427,-0.227,0.366,0.061,-1.709
-0.869,0.402,-0.22,1.343,-0.671,-1.282
-0.859,0.432,-0.211,1.465,-0.122,-0.732
-0.857,0.446,-0.212,2.686,0.305,-0.61
-0.857,0.451,-0.228,4.639,-0.061,-1.099
-0.849,0.411,-0.241,3.784,-0.61,-2.991
-0.847,0.399,-0.227,-0.183,1.16,-3.723
-0.862,0.39,-0.214,0.122,1.282,-3.845
-0.863,0.386,-0.223,1.343,1.526,-2.991
-0.864,0.373,-0.229,2.686,0.244,-1.282
-0.856,0.381,-0.228,2.991,-0.183,-0.977
-0.845,0.39,-0.235,3.662,-0.122,-0.183
-0.844,0.393,-0.222,4.517,-0.305,0.122
-0.846,0.398,-0.228,4.456,-0.671,0.183
-0.861,0.383,-0.231,4.944,-0.793,0.122
-0.857,0.385,-0.225,3.54,-0.427,0.61
-0.852,0.391,-0.228,2.93,0.0,0.488
-0.851,0.401,-0.229,1.404,0.244,0.244
-0.853,0.38,-0.213,2.747,0.427,-0.366
-0.856,0.384,-0.219,1.465,-0.183,0.0
-0.852,0.382,-0.224,0.732,0.183,0.183
-0.849,0.381,-0.22,1.404,0.305,0.0
-0.873,0.388,-0.225,0.061,0.183,-0.183
-0.865,0.404,-0.221,-0.61,0.732,-0.244
-0.858,0.396,-0.218,-0.549,1.465,-0.977
-0.862,0.4,-0.223,-0.244,0.916,-0.793
-0.856,0.406,-0.216,-2.197,0.488,-0.854
-0.852,0.41,-0.207,-2.014,1.16,-0.977
-0.86,0.403,-0.222,0.183,0.244,-1.038
-0.865,0.4,-0.225,0.732,-0.244,-1.038
-0.862,0.404,-0.222,-0.671,-0.122,-0.793
-0.855,0.411,-0.216,-0.793,0.916,-0.916
-0.861,0.392,-0.226,1.526,0.122,-0.305
-0.861,0.395,-0.219,0.366,0.122,-0.244
-0.857,0.419,-0.211,-1.221,0.244,0.0
-0.861,0.417,-0.216,0.916,-0.427,-0.732
-0.861,0.4,-0.207,1.465,0.0,-0.61
-0.862,0.399,-0.212,1.404,0.0,-0.244
-0.861,0.403,-0.215,1.343,0.122,0.183
-0.848,0.426,-0.216,0.0,0.122,-0.305
-0.847,0.417,-0.223,0.916,0.0,-0.854
-0.855,0.406,-0.227,0.305,0.732,-0.366
-0.853,0.406,-0.224,0.183,0.793,-0.305
-0.855,0.402,-0.221,0.305,0.366,-0.244
-0.857,0.404,-0.215,0.061,0.427,-0.244
-0.859,0.399,-0.22,-0.183,0.671,0.244
-0.85,0.406,-0.224,0.916,0.366,0.305
-0.863,0.395,-0.229,1.892,-0.122,0.061
-0.857,0.405,-0.219,0.793,0.671,0.977
-0.851,0.407,-0.216,1.099,0.916,0.671
-0.848,0.395,-0.226,2.441,0.061,-0.122

-0.876,0.413,-0.221,-0.488,0.916,0.366
-0.87,0.414,-0.218,0.366,1.221,-0.061
-0.866,0.417,-0.208,0.305,1.282,-0.427
-0.858,0.42,-0.204,0.061,1.953,-0.488
-0.856,0.415,-0.211,0.366,2.014,-0.549
-0.855,0.399,-0.222,1.099,2.075,-0.549
-0.855,0.385,-0.226,1.282,1.526,-0.549
-0.859,0.383,-0.229,-0.732,0.549,-0.244
-0.864,0.39,-0.226,-1.648,0.427,0.183
-0.869,0.412,-0.21,-3.418,0.732,0.305
-0.864,0.437,-0.195,-3.296,1.587,-0.122
-0.859,0.434,-0.194,-0.366,1.221,-0.793
-0.857,0.428,-0.201,1.038,1.221,-0.916
-0.865,0.395,-0.218,4.15,0.366,-0.854
-0.865,0.391,-0.226,3.845,-0.122,-0.61
-0.868,0.401,-0.226,1.526,0.244,-0.793
-0.857,0.412,-0.207,-0.793,1.709,-0.61
-0.852,0.426,-0.207,-1.526,2.075,-0.793
-0.847,0.412,-0.204,1.038,0.671,-1.038
-0.849,0.406,-0.21,1.526,0.366,-0.977
-0.858,0.401,-0.207,0.305,-0.183,-0.916
-0.856,0.395,-0.213,0.244,0.0,-0.916
-0.86,0.389,-0.218,1.038,0.305,-0.732
-0.86,0.388,-0.219,0.488,0.549,-0.549
-0.858,0.386,-0.208,0.549,0.427,0.244
-0.86,0.396,-0.206,0.244,0.488,0.244
-0.86,0.404,-0.209,-0.427,0.305,-0.305
-0.858,0.402,-0.208,0.183,0.305,-0.183
-0.854,0.405,-0.218,0.793,0.793,0.183
-0.856,0.392,-0.21,-0.183,0.244,0.061
-0.86,0.396,-0.215,0.671,0.183,0.183
-0.864,0.391,-0.21,0.183,-0.061,0.122
-0.862,0.391,-0.21,0.244,-0.183,0.244
-0.862,0.391,-0.214,0.916,-0.122,0.732
-0.861,0.383,-0.216,1.282,-0.61,0.916
-0.868,0.364,-0.217,2.136,-1.282,1.648
-0.869,0.369,-0.211,2.014,-1.587,3.296
-0.847,0.461,-0.212,0.61,-0.793,4.089
-0.848,0.457,-0.212,-0.183,-0.61,3.418
-0.854,0.434,-0.199,3.418,-0.732,1.587
-0.857,0.425,-0.204,4.517,-0.854,1.648
-0.858,0.427,-0.215,3.967,-1.221,1.221
-0.856,0.429,-0.212,1.709,-0.732,0.793
-0.862,0.395,-0.214,1.526,0.061,-0.732
-0.864,0.403,-0.212,1.892,-0.244,0.183
-0.852,0.419,-0.21,0.977,0.671,0.549
-0.849,0.414,-0.208,1.343,0.305,-15.564
-0.851,0.398,-0.216,2.38,0.122,-0.671
-0.853,0.395,-0.22,2.563,-0.244,-0.793
-0.861,0.383,-0.21,0.854,0.793,0.732
-0.859,0.39,-0.209,0.366,0.854,0.671
-0.856,0.395,-0.223,0.916,0.244,-0.244
-0.86,0.395,-0.217,1.099,0.305,0.0
-0.852,0.391,-0.209,0.793,0.305,0.61
